<?xml version="1.0" encoding="UTF-8"?>
<ODM xmlns="http://www.cdisc.org/ns/odm/v1.3"
     xmlns:xs="http://www.w3.org/2001/XMLSchema-instance"
     xmlns:nciodm="http://ncicb.nci.nih.gov/xml/odm/EVS/CDISC"
     xs:schemaLocation="http://www.nci.nih.gov/EVS/CDISC ../schema/controlledterminology1-0-0.xsd"
     FileType="Snapshot"
     FileOID="CDISC_CT.SDTM.2012-08-03"
     Granularity="Metadata"
     CreationDateTime="2012-07-30T12:05:13"
     AsOfDateTime="2012-08-03T00:00:00"
     ODMVersion="1.3.1"
     Originator="CDISC XML Technologies Team (SAS 9.03.01M2P05162012)"
     SourceSystem="NCI Thesaurus"
     SourceSystemVersion="2012-08-03">
  <Study OID="CDISC_CT.SDTM.2012-08-03">
    <GlobalVariables>
      <StudyName>CDISC SDTM Controlled Terminology</StudyName>
      <StudyDescription>CDISC SDTM Controlled Terminology, 2012-08-03</StudyDescription>
      <ProtocolName>CDISC SDTM Controlled Terminology</ProtocolName>
    </GlobalVariables>
    <MetaDataVersion OID="CDISC_CT_MetaDataVersion.SDTM.2012-08-03"
                     Name="CDISC SDTM Controlled Terminology"
                     Description="CDISC SDTM Controlled Terminology, 2012-08-03">
      <CodeList OID="CL.C66767.ACN" Name="Action Taken with Study Treatment" DataType="text" nciodm:ExtCodeID="C66767" nciodm:CodeListExtensible="No">
        <Description>
          <TranslatedText xml:lang="en">Action Taken with Study Treatment</TranslatedText>
        </Description>
        <EnumeratedItem CodedValue="DOSE INCREASED" nciodm:ExtCodeID="C49503">
          <nciodm:CDISCDefinition>An indication that a medication schedule was modified by addition; either by changing the frequency, strength or amount. (NCI)</nciodm:CDISCDefinition>
          <nciodm:PreferredTerm>Dose Increased</nciodm:PreferredTerm>
        </EnumeratedItem>
        <EnumeratedItem CodedValue="DOSE NOT CHANGED" nciodm:ExtCodeID="C49504">
          <nciodm:CDISCDefinition>An indication that a medication schedule was maintained. (NCI)</nciodm:CDISCDefinition>
          <nciodm:PreferredTerm>Dose Not Changed</nciodm:PreferredTerm>
        </EnumeratedItem>
        <EnumeratedItem CodedValue="DOSE REDUCED" nciodm:ExtCodeID="C49505">
          <nciodm:CDISCDefinition>An indication that a medication schedule was modified by subtraction, either by changing the frequency, strength or amount. (NCI)</nciodm:CDISCDefinition>
          <nciodm:PreferredTerm>Dose Reduced</nciodm:PreferredTerm>
        </EnumeratedItem>
        <EnumeratedItem CodedValue="DRUG INTERRUPTED" nciodm:ExtCodeID="C49501">
          <nciodm:CDISCDefinition>An indication that a medication schedule was modified by temporarily terminating a prescribed regimen of medication. (NCI)</nciodm:CDISCDefinition>
          <nciodm:PreferredTerm>Drug Interrupted</nciodm:PreferredTerm>
        </EnumeratedItem>
        <EnumeratedItem CodedValue="DRUG WITHDRAWN" nciodm:ExtCodeID="C49502">
          <nciodm:CDISCDefinition>An indication that a medication schedule was modified through termination of a prescribed regimen of medication. (NCI)</nciodm:CDISCDefinition>
          <nciodm:PreferredTerm>Drug Withdrawn</nciodm:PreferredTerm>
        </EnumeratedItem>
        <EnumeratedItem CodedValue="NOT APPLICABLE" nciodm:ExtCodeID="C48660">
          <nciodm:CDISCSynonym>NA</nciodm:CDISCSynonym>
          <nciodm:CDISCSynonym>Not Applicable</nciodm:CDISCSynonym>
          <nciodm:CDISCDefinition>Determination of a value is not relevant in the current context. (NCI)</nciodm:CDISCDefinition>
          <nciodm:PreferredTerm>Not Applicable</nciodm:PreferredTerm>
        </EnumeratedItem>
        <EnumeratedItem CodedValue="UNKNOWN" nciodm:ExtCodeID="C17998">
          <nciodm:CDISCSynonym>U</nciodm:CDISCSynonym>
          <nciodm:CDISCSynonym>Unknown</nciodm:CDISCSynonym>
          <nciodm:CDISCDefinition>Not known, not observed, not recorded, or refused. (NCI)</nciodm:CDISCDefinition>
          <nciodm:PreferredTerm>Unknown</nciodm:PreferredTerm>
        </EnumeratedItem>
        <nciodm:CDISCSubmissionValue>ACN</nciodm:CDISCSubmissionValue>
        <nciodm:CDISCSynonym>Action Taken with Study Treatment</nciodm:CDISCSynonym>
        <nciodm:PreferredTerm>CDISC SDTM Action Taken with Study Treatment Terminology</nciodm:PreferredTerm>
      </CodeList>
      <CodeList OID="CL.C66768.OUT" Name="Outcome of Event" DataType="text" nciodm:ExtCodeID="C66768" nciodm:CodeListExtensible="No">
        <Description>
          <TranslatedText xml:lang="en">A condition or event that is attributed to the adverse event and is the result or conclusion of the adverse event. (NCI)</TranslatedText>
        </Description>
        <EnumeratedItem CodedValue="FATAL" nciodm:ExtCodeID="C48275">
          <nciodm:CDISCSynonym>Grade 5</nciodm:CDISCSynonym>
          <nciodm:CDISCSynonym>5</nciodm:CDISCSynonym>
          <nciodm:CDISCSynonym>FATAL</nciodm:CDISCSynonym>
          <nciodm:CDISCDefinition>The termination of life as a result of an adverse event. (NCI)</nciodm:CDISCDefinition>
          <nciodm:PreferredTerm>Death Related to Adverse Event</nciodm:PreferredTerm>
        </EnumeratedItem>
        <EnumeratedItem CodedValue="NOT RECOVERED/NOT RESOLVED" nciodm:ExtCodeID="C49494">
          <nciodm:CDISCDefinition>One of the possible results of an adverse event outcome that indicates that the event has not improved or recuperated. (NCI)</nciodm:CDISCDefinition>
          <nciodm:PreferredTerm>Not Recovered or Not Resolved</nciodm:PreferredTerm>
        </EnumeratedItem>
        <EnumeratedItem CodedValue="RECOVERED/RESOLVED" nciodm:ExtCodeID="C49498">
          <nciodm:CDISCDefinition>One of the possible results of an adverse event outcome that indicates that the event has improved or recuperated. (NCI)</nciodm:CDISCDefinition>
          <nciodm:PreferredTerm>Recovered or Resolved</nciodm:PreferredTerm>
        </EnumeratedItem>
        <EnumeratedItem CodedValue="RECOVERED/RESOLVED WITH SEQUELAE" nciodm:ExtCodeID="C49495">
          <nciodm:CDISCDefinition>One of the possible results of an adverse event outcome where the subject recuperated but retained pathological conditions resulting from the prior disease or injury. (NCI)</nciodm:CDISCDefinition>
          <nciodm:PreferredTerm>Recovered or Resolved with Sequelae</nciodm:PreferredTerm>
        </EnumeratedItem>
        <EnumeratedItem CodedValue="RECOVERING/RESOLVING" nciodm:ExtCodeID="C49496">
          <nciodm:CDISCDefinition>One of the possible results of an adverse event outcome that indicates that the event is improving. (NCI)</nciodm:CDISCDefinition>
          <nciodm:PreferredTerm>Recovering or Resolving</nciodm:PreferredTerm>
        </EnumeratedItem>
        <EnumeratedItem CodedValue="UNKNOWN" nciodm:ExtCodeID="C17998">
          <nciodm:CDISCSynonym>U</nciodm:CDISCSynonym>
          <nciodm:CDISCSynonym>Unknown</nciodm:CDISCSynonym>
          <nciodm:CDISCDefinition>Not known, not observed, not recorded, or refused. (NCI)</nciodm:CDISCDefinition>
          <nciodm:PreferredTerm>Unknown</nciodm:PreferredTerm>
        </EnumeratedItem>
        <nciodm:CDISCSubmissionValue>OUT</nciodm:CDISCSubmissionValue>
        <nciodm:CDISCSynonym>Outcome of Event</nciodm:CDISCSynonym>
        <nciodm:PreferredTerm>CDISC SDTM Adverse Event Outcome Terminology</nciodm:PreferredTerm>
      </CodeList>
      <CodeList OID="CL.C66780.AGESPAN" Name="Age Span" DataType="text" nciodm:ExtCodeID="C66780" nciodm:CodeListExtensible="Yes">
        <Description>
          <TranslatedText xml:lang="en">Subgroups of populations based on age. (NCI)</TranslatedText>
        </Description>
        <EnumeratedItem CodedValue="ADOLESCENT (12-17 YEARS)" nciodm:ExtCodeID="C27954">
          <nciodm:CDISCDefinition>A juvenile between the onset of puberty and maturity; in the state of development between puberty and maturity. (NCI)</nciodm:CDISCDefinition>
          <nciodm:PreferredTerm>Adolescent</nciodm:PreferredTerm>
        </EnumeratedItem>
        <EnumeratedItem CodedValue="ADULT (18-65)" nciodm:ExtCodeID="C49685">
          <nciodm:CDISCDefinition>A person from 18 years to 65 years of age. (NCI)</nciodm:CDISCDefinition>
          <nciodm:PreferredTerm>Adult 18-65 Years Old</nciodm:PreferredTerm>
        </EnumeratedItem>
        <EnumeratedItem CodedValue="CHILDREN (2-11 YEARS)" nciodm:ExtCodeID="C49683">
          <nciodm:CDISCDefinition>A person from 2 years to 11 years of age. (NCI)</nciodm:CDISCDefinition>
          <nciodm:PreferredTerm>Children 2-11 Years Old</nciodm:PreferredTerm>
        </EnumeratedItem>
        <EnumeratedItem CodedValue="ELDERLY (&gt; 65)" nciodm:ExtCodeID="C16268">
          <nciodm:CDISCDefinition>An age group comprised by people 65 years of age and older. (NCI)</nciodm:CDISCDefinition>
          <nciodm:PreferredTerm>Elderly</nciodm:PreferredTerm>
        </EnumeratedItem>
        <EnumeratedItem CodedValue="IN UTERO" nciodm:ExtCodeID="C49641">
          <nciodm:CDISCDefinition>The period of time during which the embryo or fetus is present in the uterus of the female. Also describes the location of the embryo or fetus as being in the uterus in contrast to outside the uterus (ex utero). (NCI)</nciodm:CDISCDefinition>
          <nciodm:PreferredTerm>In Utero</nciodm:PreferredTerm>
        </EnumeratedItem>
        <EnumeratedItem CodedValue="INFANT AND TODDLER (28 DAYS - 23 MONTHS)" nciodm:ExtCodeID="C49643">
          <nciodm:CDISCDefinition>A person from 28 days to 23 months of age. (NCI)</nciodm:CDISCDefinition>
          <nciodm:PreferredTerm>Infant And Toddler</nciodm:PreferredTerm>
        </EnumeratedItem>
        <EnumeratedItem CodedValue="NEWBORN (0-27 DAYS)" nciodm:ExtCodeID="C16731">
          <nciodm:CDISCDefinition>An infant during the first month after birth. (NCI)</nciodm:CDISCDefinition>
          <nciodm:PreferredTerm>Newborn</nciodm:PreferredTerm>
        </EnumeratedItem>
        <EnumeratedItem CodedValue="PRETERM NEWBORN INFANTS" nciodm:ExtCodeID="C49642">
          <nciodm:CDISCDefinition>An infant born prior to completion of the normal gestation period. (NCI)</nciodm:CDISCDefinition>
          <nciodm:PreferredTerm>Preterm Newborn Infant</nciodm:PreferredTerm>
        </EnumeratedItem>
        <nciodm:CDISCSubmissionValue>AGESPAN</nciodm:CDISCSubmissionValue>
        <nciodm:CDISCSynonym>Age Span</nciodm:CDISCSynonym>
        <nciodm:PreferredTerm>CDISC SDTM Age Group Terminology</nciodm:PreferredTerm>
      </CodeList>
      <CodeList OID="CL.C66781.AGEU" Name="Age Unit" DataType="text" nciodm:ExtCodeID="C66781" nciodm:CodeListExtensible="No">
        <Description>
          <TranslatedText xml:lang="en">Those units of time that are routinely used to express the age of a subject.</TranslatedText>
        </Description>
        <EnumeratedItem CodedValue="DAYS" nciodm:ExtCodeID="C25301">
          <nciodm:CDISCDefinition>The time for Earth to make a complete rotation on its axis; ordinarily divided into twenty-four hours. This also refers to a specific day. (NCI)</nciodm:CDISCDefinition>
          <nciodm:PreferredTerm>Day</nciodm:PreferredTerm>
        </EnumeratedItem>
        <EnumeratedItem CodedValue="HOURS" nciodm:ExtCodeID="C25529">
          <nciodm:CDISCSynonym>Hour</nciodm:CDISCSynonym>
          <nciodm:CDISCSynonym>hr</nciodm:CDISCSynonym>
          <nciodm:CDISCDefinition>A unit measure of time equal to 3,600 seconds or 60 minutes. It is approximately 1/24 of a median day. (NCI)</nciodm:CDISCDefinition>
          <nciodm:PreferredTerm>Hour</nciodm:PreferredTerm>
        </EnumeratedItem>
        <EnumeratedItem CodedValue="MONTHS" nciodm:ExtCodeID="C29846">
          <nciodm:CDISCDefinition>One of the 12 divisions of a year as determined by a calendar. It corresponds to the unit of time of approximately to one cycle of the moon's phases, about 30 days or 4 weeks. (NCI)</nciodm:CDISCDefinition>
          <nciodm:PreferredTerm>Month</nciodm:PreferredTerm>
        </EnumeratedItem>
        <EnumeratedItem CodedValue="WEEKS" nciodm:ExtCodeID="C29844">
          <nciodm:CDISCDefinition>Any period of seven consecutive days. (NCI)</nciodm:CDISCDefinition>
          <nciodm:PreferredTerm>Week</nciodm:PreferredTerm>
        </EnumeratedItem>
        <EnumeratedItem CodedValue="YEARS" nciodm:ExtCodeID="C29848">
          <nciodm:CDISCDefinition>The period of time that it takes for Earth to make a complete revolution around the sun, approximately 365 days; a specific one year period. (NCI)</nciodm:CDISCDefinition>
          <nciodm:PreferredTerm>Year</nciodm:PreferredTerm>
        </EnumeratedItem>
        <nciodm:CDISCSubmissionValue>AGEU</nciodm:CDISCSubmissionValue>
        <nciodm:CDISCSynonym>Age Unit</nciodm:CDISCSynonym>
        <nciodm:PreferredTerm>CDISC SDTM Age Unit Terminology</nciodm:PreferredTerm>
      </CodeList>
      <CodeList OID="CL.C66797.IECAT" Name="Category for Inclusion/Exclusion" DataType="text" nciodm:ExtCodeID="C66797" nciodm:CodeListExtensible="No">
        <Description>
          <TranslatedText xml:lang="en">A collection of criteria on which subjects are evaluated and that must be met by all study subjects. (NCI)</TranslatedText>
        </Description>
        <EnumeratedItem CodedValue="EXCLUSION" nciodm:ExtCodeID="C25370">
          <nciodm:CDISCDefinition>List of characteristics in a protocol, any one of which may exclude a potential subject from participation in a study. (CDISC glossary)</nciodm:CDISCDefinition>
          <nciodm:PreferredTerm>Exclusion Criteria</nciodm:PreferredTerm>
        </EnumeratedItem>
        <EnumeratedItem CodedValue="INCLUSION" nciodm:ExtCodeID="C25532">
          <nciodm:CDISCDefinition>The criteria in a protocol that prospective subjects must meet to be eligible for participation in a study. NOTE: Exclusion and inclusion criteria define the study population. See also exclusion criteria. (CDISC glossary)</nciodm:CDISCDefinition>
          <nciodm:PreferredTerm>Inclusion Criteria</nciodm:PreferredTerm>
        </EnumeratedItem>
        <nciodm:CDISCSubmissionValue>IECAT</nciodm:CDISCSubmissionValue>
        <nciodm:CDISCSynonym>Category for Inclusion/Exclusion</nciodm:CDISCSynonym>
        <nciodm:PreferredTerm>CDISC SDTM Category for Inclusion And Or Exclusion Terminology</nciodm:PreferredTerm>
      </CodeList>
      <CodeList OID="CL.C66784.TOXGR" Name="Common Terminology Criteria for Adverse Events" DataType="text" nciodm:ExtCodeID="C66784" nciodm:CodeListExtensible="No">
        <Description>
          <TranslatedText xml:lang="en">A standard terminology developed to report adverse events occurring in cancer clinical trials. Common terminology criteria for adverse events (CTCAE) are used in study adverse event summaries and Investigational New Drug reports to the Food and Drug Administration. The CTCAE contain a grading scale for each adverse event term representing the severity of the event. (NCI)</TranslatedText>
        </Description>
        <EnumeratedItem CodedValue="1" nciodm:ExtCodeID="C41338">
          <nciodm:CDISCSynonym>Grade 1</nciodm:CDISCSynonym>
          <nciodm:CDISCSynonym>1</nciodm:CDISCSynonym>
          <nciodm:CDISCDefinition>A type of adverse event that is usually transient and may require only minimal treatment or therapeutic intervention. The event does not generally interfere with usual activities of daily living.</nciodm:CDISCDefinition>
          <nciodm:PreferredTerm>Mild Adverse Event</nciodm:PreferredTerm>
        </EnumeratedItem>
        <EnumeratedItem CodedValue="2" nciodm:ExtCodeID="C41339">
          <nciodm:CDISCSynonym>Grade 2</nciodm:CDISCSynonym>
          <nciodm:CDISCSynonym>2</nciodm:CDISCSynonym>
          <nciodm:CDISCDefinition>A type of adverse event that is usually alleviated with additional specific therapeutic intervention. The event interferes with usual activities of daily living, causing discomfort but poses no significant or permanent risk of harm to the research participant.</nciodm:CDISCDefinition>
          <nciodm:PreferredTerm>Moderate Adverse Event</nciodm:PreferredTerm>
        </EnumeratedItem>
        <EnumeratedItem CodedValue="3" nciodm:ExtCodeID="C41340">
          <nciodm:CDISCSynonym>Grade 3</nciodm:CDISCSynonym>
          <nciodm:CDISCSynonym>3</nciodm:CDISCSynonym>
          <nciodm:CDISCDefinition>A type of adverse event that interrupts usual activities of daily living, or significantly affects clinical status, or may require intensive therapeutic intervention.</nciodm:CDISCDefinition>
          <nciodm:PreferredTerm>Severe Adverse Event</nciodm:PreferredTerm>
        </EnumeratedItem>
        <EnumeratedItem CodedValue="4" nciodm:ExtCodeID="C41337">
          <nciodm:CDISCSynonym>Grade 4</nciodm:CDISCSynonym>
          <nciodm:CDISCSynonym>4</nciodm:CDISCSynonym>
          <nciodm:CDISCSynonym>LIFE THREATENING</nciodm:CDISCSynonym>
          <nciodm:CDISCDefinition>An adverse event, and/or its immediate sequelae, which is associated with an imminent risk of death or which is associated with physical or mental disabilities that affect or limit the ability of a person to perform activities of daily living (eating, ambulation, toileting, etc.) See NCI Common Terminology Criteria for Adverse Events.</nciodm:CDISCDefinition>
          <nciodm:PreferredTerm>Life Threatening or Disabling Adverse Event</nciodm:PreferredTerm>
        </EnumeratedItem>
        <EnumeratedItem CodedValue="5" nciodm:ExtCodeID="C48275">
          <nciodm:CDISCSynonym>Grade 5</nciodm:CDISCSynonym>
          <nciodm:CDISCSynonym>5</nciodm:CDISCSynonym>
          <nciodm:CDISCSynonym>FATAL</nciodm:CDISCSynonym>
          <nciodm:CDISCDefinition>The termination of life as a result of an adverse event. (NCI)</nciodm:CDISCDefinition>
          <nciodm:PreferredTerm>Death Related to Adverse Event</nciodm:PreferredTerm>
        </EnumeratedItem>
        <nciodm:CDISCSubmissionValue>TOXGR</nciodm:CDISCSubmissionValue>
        <nciodm:CDISCSynonym>Common Terminology Criteria for Adverse Events</nciodm:CDISCSynonym>
        <nciodm:PreferredTerm>CDISC SDTM Common Terminology Criteria for Adverse Event Grade Terminology</nciodm:PreferredTerm>
      </CodeList>
      <CodeList OID="CL.C87162.TOXGR" Name="Common Terminology Criteria for Adverse Events V4.0" DataType="text" nciodm:ExtCodeID="C87162" nciodm:CodeListExtensible="No">
        <Description>
          <TranslatedText xml:lang="en">The version 4.0 standard terminology developed to report adverse events occurring in cancer clinical trials. Common terminology criteria for adverse events (CTCAE) are used to study adverse event summaries and Investigational New Drug reports to the Food and Drug Administration. The CTCAE contain a grading scale for each adverse event term representing the severity of the event. (NCI)</TranslatedText>
        </Description>
        <EnumeratedItem CodedValue="0" nciodm:ExtCodeID="C75533">
          <nciodm:CDISCSynonym>ABSENT</nciodm:CDISCSynonym>
          <nciodm:CDISCSynonym>Grade 0</nciodm:CDISCSynonym>
          <nciodm:CDISCSynonym>0</nciodm:CDISCSynonym>
          <nciodm:CDISCDefinition>Grade 0 is universally defined as absence of Adverse Events or within normal limits or values.</nciodm:CDISCDefinition>
          <nciodm:PreferredTerm>Absent Adverse Event</nciodm:PreferredTerm>
        </EnumeratedItem>
        <EnumeratedItem CodedValue="1" nciodm:ExtCodeID="C84263">
          <nciodm:CDISCSynonym>MILD</nciodm:CDISCSynonym>
          <nciodm:CDISCSynonym>Grade 1</nciodm:CDISCSynonym>
          <nciodm:CDISCSynonym>1</nciodm:CDISCSynonym>
          <nciodm:CDISCDefinition>An adverse event that is asymptomatic; or involves mild or minor symptoms; or is of marginal clinical relevance; or consists of clinical or diagnostic observations alone; or for which intervention is not indicated; or for which only non-prescription intervention is indicated.</nciodm:CDISCDefinition>
          <nciodm:PreferredTerm>Mild Adverse Event</nciodm:PreferredTerm>
        </EnumeratedItem>
        <EnumeratedItem CodedValue="2" nciodm:ExtCodeID="C84264">
          <nciodm:CDISCSynonym>MODERATE</nciodm:CDISCSynonym>
          <nciodm:CDISCSynonym>Grade 2</nciodm:CDISCSynonym>
          <nciodm:CDISCSynonym>2</nciodm:CDISCSynonym>
          <nciodm:CDISCDefinition>An adverse event for which only minimal, local, or noninvasive intervention (e.g. packing, cautery) is indicated; or that limits instrumental activities of daily living (ADLs, e.g., shopping, laundry, transportation, or ability to conduct finances).</nciodm:CDISCDefinition>
          <nciodm:PreferredTerm>Moderate Adverse Event</nciodm:PreferredTerm>
        </EnumeratedItem>
        <EnumeratedItem CodedValue="3" nciodm:ExtCodeID="C84265">
          <nciodm:CDISCSynonym>SEVERE</nciodm:CDISCSynonym>
          <nciodm:CDISCSynonym>Grade 3</nciodm:CDISCSynonym>
          <nciodm:CDISCSynonym>3</nciodm:CDISCSynonym>
          <nciodm:CDISCDefinition>An adverse event that is medically significant but not life-threatening; or for which inpatient care or prolongation of hospitalization are indicated; or that is an important medical event that does not result in hospitalization, but may jeopardize the patient or may require intervention either to prevent hospitalization, to prevent the AE from becoming life-threatening or causing death; or that is disabling; or that results in persistent or significant disability, incapacity, or limitation of self care activities of daily living (ADLs, e.g., getting in and out of bed, dressing, eating, getting around inside, bathing, or using the toilet).</nciodm:CDISCDefinition>
          <nciodm:PreferredTerm>Severe Adverse Event</nciodm:PreferredTerm>
        </EnumeratedItem>
        <EnumeratedItem CodedValue="4" nciodm:ExtCodeID="C84266">
          <nciodm:CDISCSynonym>LIFE THREATENING</nciodm:CDISCSynonym>
          <nciodm:CDISCSynonym>Grade 4</nciodm:CDISCSynonym>
          <nciodm:CDISCSynonym>4</nciodm:CDISCSynonym>
          <nciodm:CDISCDefinition>An adverse event that has life-threatening consequences; for which urgent intervention is indicated; that puts the patient at risk of death at the time of the event if immediate intervention is not undertaken; or that causes blindness or deafness.</nciodm:CDISCDefinition>
          <nciodm:PreferredTerm>Life Threatening Adverse Event</nciodm:PreferredTerm>
        </EnumeratedItem>
        <EnumeratedItem CodedValue="5" nciodm:ExtCodeID="C48275">
          <nciodm:CDISCSynonym>FATAL</nciodm:CDISCSynonym>
          <nciodm:CDISCSynonym>Grade 5</nciodm:CDISCSynonym>
          <nciodm:CDISCSynonym>5</nciodm:CDISCSynonym>
          <nciodm:CDISCDefinition>The termination of life as a result of an adverse event. (NCI)</nciodm:CDISCDefinition>
          <nciodm:PreferredTerm>Death Related to Adverse Event</nciodm:PreferredTerm>
        </EnumeratedItem>
        <nciodm:CDISCSubmissionValue>TOXGR</nciodm:CDISCSubmissionValue>
        <nciodm:CDISCSynonym>Common Terminology Criteria for Adverse Events V4.0</nciodm:CDISCSynonym>
        <nciodm:PreferredTerm>CDISC SDTM Common Terminology Criteria for Adverse Event Grade Terminology Version 4.0</nciodm:PreferredTerm>
      </CodeList>
      <CodeList OID="CL.C66785.TCNTRL" Name="Control Type" DataType="text" nciodm:ExtCodeID="C66785" nciodm:CodeListExtensible="Yes">
        <Description>
          <TranslatedText xml:lang="en">Comparator against which the study treatment is evaluated (e.g., concurrent (placebo, no treatment, dose-response, active), external (historical, published literature).</TranslatedText>
        </Description>
        <EnumeratedItem CodedValue="ACTIVE" nciodm:ExtCodeID="C49649">
          <nciodm:CDISCDefinition>A type of control, which has a demonstrated effect, administered as a comparator, to subjects in a clinical trial. [From ICH E10].</nciodm:CDISCDefinition>
          <nciodm:PreferredTerm>Active Control</nciodm:PreferredTerm>
        </EnumeratedItem>
        <EnumeratedItem CodedValue="NONE" nciodm:ExtCodeID="C41132">
          <nciodm:CDISCDefinition>No person or thing, nobody, not any. (NCI)</nciodm:CDISCDefinition>
          <nciodm:PreferredTerm>None</nciodm:PreferredTerm>
        </EnumeratedItem>
        <EnumeratedItem CodedValue="PLACEBO" nciodm:ExtCodeID="C49648">
          <nciodm:CDISCDefinition>Use of an inactive compound identical in appearance to drug or treatment being tested in experimental research, which may or may not be known to the physician and/or subject, administered to distinguish between drug action and suggestive effect of the drug or treatment under study. The effects of the active drug or treatment are compared to the effects of the placebo. (NCI)</nciodm:CDISCDefinition>
          <nciodm:PreferredTerm>Placebo Control</nciodm:PreferredTerm>
        </EnumeratedItem>
        <nciodm:CDISCSubmissionValue>TCNTRL</nciodm:CDISCSubmissionValue>
        <nciodm:CDISCSynonym>Control Type</nciodm:CDISCSynonym>
        <nciodm:PreferredTerm>CDISC SDTM Control Type Terminology</nciodm:PreferredTerm>
      </CodeList>
      <CodeList OID="CL.C66786.COUNTRY" Name="Country" DataType="text" nciodm:ExtCodeID="C66786" nciodm:CodeListExtensible="No">
        <Description>
          <TranslatedText xml:lang="en">A collective generic term that refers here to a wide variety of dependencies, areas of special sovereignty, uninhabited islands, and other entities in addition to the traditional countries or independent states. (NCI)</TranslatedText>
        </Description>
        <EnumeratedItem CodedValue="ABW" nciodm:ExtCodeID="C17884">
          <nciodm:CDISCSynonym>ARUBA</nciodm:CDISCSynonym>
          <nciodm:CDISCDefinition>Island in the Caribbean Sea, north of Venezuela. (NCI)</nciodm:CDISCDefinition>
          <nciodm:PreferredTerm>Aruba</nciodm:PreferredTerm>
        </EnumeratedItem>
        <EnumeratedItem CodedValue="AFG" nciodm:ExtCodeID="C16267">
          <nciodm:CDISCSynonym>AFGHANISTAN</nciodm:CDISCSynonym>
          <nciodm:CDISCDefinition>A country in Southern Asia, north and west of Pakistan, east of Iran. (NCI)</nciodm:CDISCDefinition>
          <nciodm:PreferredTerm>Afghanistan</nciodm:PreferredTerm>
        </EnumeratedItem>
        <EnumeratedItem CodedValue="AGO" nciodm:ExtCodeID="C16292">
          <nciodm:CDISCSynonym>ANGOLA</nciodm:CDISCSynonym>
          <nciodm:CDISCDefinition>A country in Southern Africa, bordering the South Atlantic Ocean, between Namibia and Democratic Republic of the Congo. (NCI)</nciodm:CDISCDefinition>
          <nciodm:PreferredTerm>Angola</nciodm:PreferredTerm>
        </EnumeratedItem>
        <EnumeratedItem CodedValue="AIA" nciodm:ExtCodeID="C20133">
          <nciodm:CDISCSynonym>ANGUILLA</nciodm:CDISCSynonym>
          <nciodm:CDISCDefinition>An island in the Caribbean Sea, east of Puerto Rico. (NCI)</nciodm:CDISCDefinition>
          <nciodm:PreferredTerm>Anguilla</nciodm:PreferredTerm>
        </EnumeratedItem>
        <EnumeratedItem CodedValue="ALA" nciodm:ExtCodeID="C44481">
          <nciodm:CDISCSynonym>ALAND ISLANDS</nciodm:CDISCSynonym>
          <nciodm:CDISCDefinition>An archipelago in the Baltic Sea at the entrance to the Gulf of Bothnia between Sweden and Finland. (NCI)</nciodm:CDISCDefinition>
          <nciodm:PreferredTerm>Aland Islands</nciodm:PreferredTerm>
        </EnumeratedItem>
        <EnumeratedItem CodedValue="ALB" nciodm:ExtCodeID="C16271">
          <nciodm:CDISCSynonym>ALBANIA</nciodm:CDISCSynonym>
          <nciodm:CDISCDefinition>A country in Southeastern Europe, bordering the Adriatic Sea and Ionian Sea, between Greece and Serbia and Montenegro. (NCI)</nciodm:CDISCDefinition>
          <nciodm:PreferredTerm>Albania</nciodm:PreferredTerm>
        </EnumeratedItem>
        <EnumeratedItem CodedValue="AND" nciodm:ExtCodeID="C16289">
          <nciodm:CDISCSynonym>ANDORRA</nciodm:CDISCSynonym>
          <nciodm:CDISCDefinition>A country in Southwestern Europe, between France and Spain. (NCI)</nciodm:CDISCDefinition>
          <nciodm:PreferredTerm>Andorra</nciodm:PreferredTerm>
        </EnumeratedItem>
        <EnumeratedItem CodedValue="ARE" nciodm:ExtCodeID="C17232">
          <nciodm:CDISCSynonym>UNITED ARAB EMIRATES</nciodm:CDISCSynonym>
          <nciodm:CDISCDefinition>A country in the Middle East, bordering the Gulf of Oman and the Persian Gulf, between Oman and Saudi Arabia. (NCI)</nciodm:CDISCDefinition>
          <nciodm:PreferredTerm>United Arab Emirates</nciodm:PreferredTerm>
        </EnumeratedItem>
        <EnumeratedItem CodedValue="ARG" nciodm:ExtCodeID="C16305">
          <nciodm:CDISCSynonym>ARGENTINA</nciodm:CDISCSynonym>
          <nciodm:CDISCDefinition>A country in Southern South America, bordering the South Atlantic Ocean, between Chile and Uruguay. (NCI)</nciodm:CDISCDefinition>
          <nciodm:PreferredTerm>Argentina</nciodm:PreferredTerm>
        </EnumeratedItem>
        <EnumeratedItem CodedValue="ARM" nciodm:ExtCodeID="C16306">
          <nciodm:CDISCSynonym>ARMENIA</nciodm:CDISCSynonym>
          <nciodm:CDISCDefinition>A country in Southwestern Asia, east of Turkey. (NCI)</nciodm:CDISCDefinition>
          <nciodm:PreferredTerm>Armenia</nciodm:PreferredTerm>
        </EnumeratedItem>
        <EnumeratedItem CodedValue="ASM" nciodm:ExtCodeID="C17739">
          <nciodm:CDISCSynonym>AMERICAN SAMOA</nciodm:CDISCSynonym>
          <nciodm:CDISCDefinition>A group of islands in the South Pacific Ocean, about half way between Hawaii and New Zealand. (NCI)</nciodm:CDISCDefinition>
          <nciodm:PreferredTerm>American Samoa</nciodm:PreferredTerm>
        </EnumeratedItem>
        <EnumeratedItem CodedValue="ATA" nciodm:ExtCodeID="C18007">
          <nciodm:CDISCSynonym>ANTARCTICA</nciodm:CDISCSynonym>
          <nciodm:CDISCDefinition>The continent lying mostly south of the Antarctic Circle. (NCI)</nciodm:CDISCDefinition>
          <nciodm:PreferredTerm>Antarctica</nciodm:PreferredTerm>
        </EnumeratedItem>
        <EnumeratedItem CodedValue="ATF" nciodm:ExtCodeID="C20105">
          <nciodm:CDISCSynonym>FRENCH SOUTHERN TERRITORIES</nciodm:CDISCSynonym>
          <nciodm:CDISCDefinition>Islands in the southern Indian Ocean, south of Africa, about equidistant between Africa, Antarctica, and Australia. (NCI)</nciodm:CDISCDefinition>
          <nciodm:PreferredTerm>French Southern Territories</nciodm:PreferredTerm>
        </EnumeratedItem>
        <EnumeratedItem CodedValue="ATG" nciodm:ExtCodeID="C16303">
          <nciodm:CDISCSynonym>ANTIGUA AND BARBUDA</nciodm:CDISCSynonym>
          <nciodm:CDISCDefinition>Islands between the Caribbean Sea and the North Atlantic Ocean, east-southeast of Puerto Rico. (NCI)</nciodm:CDISCDefinition>
          <nciodm:PreferredTerm>Antigua and Barbuda</nciodm:PreferredTerm>
        </EnumeratedItem>
        <EnumeratedItem CodedValue="AUS" nciodm:ExtCodeID="C16311">
          <nciodm:CDISCSynonym>AUSTRALIA</nciodm:CDISCSynonym>
          <nciodm:CDISCDefinition>The continent between the Indian Ocean and the South Pacific Ocean. (NCI)</nciodm:CDISCDefinition>
          <nciodm:PreferredTerm>Australia</nciodm:PreferredTerm>
        </EnumeratedItem>
        <EnumeratedItem CodedValue="AUT" nciodm:ExtCodeID="C16312">
          <nciodm:CDISCSynonym>AUSTRIA</nciodm:CDISCSynonym>
          <nciodm:CDISCDefinition>A country in Central Europe, north of Italy and Slovenia. (NCI)</nciodm:CDISCDefinition>
          <nciodm:PreferredTerm>Austria</nciodm:PreferredTerm>
        </EnumeratedItem>
        <EnumeratedItem CodedValue="AZE" nciodm:ExtCodeID="C16316">
          <nciodm:CDISCSynonym>AZERBAIJAN</nciodm:CDISCSynonym>
          <nciodm:CDISCDefinition>A country in Southwestern Asia, bordering the Caspian Sea, between Iran and Russia. (NCI)</nciodm:CDISCDefinition>
          <nciodm:PreferredTerm>Azerbaijan</nciodm:PreferredTerm>
        </EnumeratedItem>
        <EnumeratedItem CodedValue="BDI" nciodm:ExtCodeID="C16371">
          <nciodm:CDISCSynonym>BURUNDI</nciodm:CDISCSynonym>
          <nciodm:CDISCDefinition>A country in Central Africa, east of Democratic Republic of the Congo. (NCI)</nciodm:CDISCDefinition>
          <nciodm:PreferredTerm>Burundi</nciodm:PreferredTerm>
        </EnumeratedItem>
        <EnumeratedItem CodedValue="BEL" nciodm:ExtCodeID="C16329">
          <nciodm:CDISCSynonym>BELGIUM</nciodm:CDISCSynonym>
          <nciodm:CDISCDefinition>A country in Western Europe, bordering the North Sea, between France and the Netherlands. (NCI)</nciodm:CDISCDefinition>
          <nciodm:PreferredTerm>Belgium</nciodm:PreferredTerm>
        </EnumeratedItem>
        <EnumeratedItem CodedValue="BEN" nciodm:ExtCodeID="C16333">
          <nciodm:CDISCSynonym>BENIN REPUBLIC</nciodm:CDISCSynonym>
          <nciodm:CDISCDefinition>A country in Western Africa, bordering the North Atlantic Ocean, between Nigeria and Togo. (NCI)</nciodm:CDISCDefinition>
          <nciodm:PreferredTerm>Benin</nciodm:PreferredTerm>
        </EnumeratedItem>
        <EnumeratedItem CodedValue="BFA" nciodm:ExtCodeID="C16369">
          <nciodm:CDISCSynonym>BURKINA FASO</nciodm:CDISCSynonym>
          <nciodm:CDISCDefinition>A country in Western Africa, north of Ghana. (NCI)</nciodm:CDISCDefinition>
          <nciodm:PreferredTerm>Burkina Faso</nciodm:PreferredTerm>
        </EnumeratedItem>
        <EnumeratedItem CodedValue="BGD" nciodm:ExtCodeID="C16323">
          <nciodm:CDISCSynonym>BANGLADESH</nciodm:CDISCSynonym>
          <nciodm:CDISCDefinition>A country in Southern Asia, bordering the Bay of Bengal, between Burma and India. (NCI)</nciodm:CDISCDefinition>
          <nciodm:PreferredTerm>Bangladesh</nciodm:PreferredTerm>
        </EnumeratedItem>
        <EnumeratedItem CodedValue="BGR" nciodm:ExtCodeID="C16368">
          <nciodm:CDISCSynonym>BULGARIA</nciodm:CDISCSynonym>
          <nciodm:CDISCDefinition>A country in Southeastern Europe, bordering the Black Sea, between Romania and Turkey. (NCI)</nciodm:CDISCDefinition>
          <nciodm:PreferredTerm>Bulgaria</nciodm:PreferredTerm>
        </EnumeratedItem>
        <EnumeratedItem CodedValue="BHR" nciodm:ExtCodeID="C16322">
          <nciodm:CDISCSynonym>BAHRAIN</nciodm:CDISCSynonym>
          <nciodm:CDISCDefinition>An archipelago in the Persian Gulf, east of Saudi Arabia. (NCI)</nciodm:CDISCDefinition>
          <nciodm:PreferredTerm>Bahrain</nciodm:PreferredTerm>
        </EnumeratedItem>
        <EnumeratedItem CodedValue="BHS" nciodm:ExtCodeID="C16321">
          <nciodm:CDISCSynonym>BAHAMAS</nciodm:CDISCSynonym>
          <nciodm:CDISCDefinition>A chain of islands in the North Atlantic Ocean, southeast of Florida. (NCI)</nciodm:CDISCDefinition>
          <nciodm:PreferredTerm>Bahamas</nciodm:PreferredTerm>
        </EnumeratedItem>
        <EnumeratedItem CodedValue="BIH" nciodm:ExtCodeID="C16361">
          <nciodm:CDISCSynonym>BOSNIA-HERZEGOVINA</nciodm:CDISCSynonym>
          <nciodm:CDISCDefinition>A country in Southeastern Europe, bordering the Adriatic Sea and Croatia. (NCI)</nciodm:CDISCDefinition>
          <nciodm:PreferredTerm>Bosnia and Herzegovina</nciodm:PreferredTerm>
        </EnumeratedItem>
        <EnumeratedItem CodedValue="BLM" nciodm:ExtCodeID="C83609">
          <nciodm:CDISCSynonym>SAINT BARTHELEMY</nciodm:CDISCSynonym>
          <nciodm:CDISCDefinition>An island in the Caribbean sea, between Saint Martin and Saint Kitts and Nevis. (NCI)</nciodm:CDISCDefinition>
          <nciodm:PreferredTerm>Saint Barthelemy</nciodm:PreferredTerm>
        </EnumeratedItem>
        <EnumeratedItem CodedValue="BLR" nciodm:ExtCodeID="C16372">
          <nciodm:CDISCSynonym>BELARUS</nciodm:CDISCSynonym>
          <nciodm:CDISCDefinition>A country in Eastern Europe, east of Poland. (NCI)</nciodm:CDISCDefinition>
          <nciodm:PreferredTerm>Belarus</nciodm:PreferredTerm>
        </EnumeratedItem>
        <EnumeratedItem CodedValue="BLZ" nciodm:ExtCodeID="C16331">
          <nciodm:CDISCSynonym>BELIZE</nciodm:CDISCSynonym>
          <nciodm:CDISCDefinition>A country in Central America, bordering the Caribbean Sea, between Guatemala and Mexico. (NCI)</nciodm:CDISCDefinition>
          <nciodm:PreferredTerm>Belize</nciodm:PreferredTerm>
        </EnumeratedItem>
        <EnumeratedItem CodedValue="BMU" nciodm:ExtCodeID="C16334">
          <nciodm:CDISCSynonym>BERMUDA</nciodm:CDISCSynonym>
          <nciodm:CDISCDefinition>A group of islands in the North Atlantic Ocean, east of South Carolina. (NCI)</nciodm:CDISCDefinition>
          <nciodm:PreferredTerm>Bermuda</nciodm:PreferredTerm>
        </EnumeratedItem>
        <EnumeratedItem CodedValue="BOL" nciodm:ExtCodeID="C16359">
          <nciodm:CDISCSynonym>BOLIVIA</nciodm:CDISCSynonym>
          <nciodm:CDISCDefinition>A country in Central South America, southwest of Brazil. (NCI)</nciodm:CDISCDefinition>
          <nciodm:PreferredTerm>Bolivia</nciodm:PreferredTerm>
        </EnumeratedItem>
        <EnumeratedItem CodedValue="BRA" nciodm:ExtCodeID="C16364">
          <nciodm:CDISCSynonym>BRAZIL</nciodm:CDISCSynonym>
          <nciodm:CDISCDefinition>A country in Eastern South America, bordering the Atlantic Ocean. (NCI)</nciodm:CDISCDefinition>
          <nciodm:PreferredTerm>Brazil</nciodm:PreferredTerm>
        </EnumeratedItem>
        <EnumeratedItem CodedValue="BRB" nciodm:ExtCodeID="C16324">
          <nciodm:CDISCSynonym>BARBADOS</nciodm:CDISCSynonym>
          <nciodm:CDISCDefinition>An island between the Caribbean Sea and the North Atlantic Ocean, northeast of Venezuela. (NCI)</nciodm:CDISCDefinition>
          <nciodm:PreferredTerm>Barbados</nciodm:PreferredTerm>
        </EnumeratedItem>
        <EnumeratedItem CodedValue="BRN" nciodm:ExtCodeID="C16367">
          <nciodm:CDISCSynonym>BRUNEI</nciodm:CDISCSynonym>
          <nciodm:CDISCDefinition>A country in Southeastern Asia, bordering the South China Sea and Malaysia. (NCI)</nciodm:CDISCDefinition>
          <nciodm:PreferredTerm>Brunei Darussalam</nciodm:PreferredTerm>
        </EnumeratedItem>
        <EnumeratedItem CodedValue="BTN" nciodm:ExtCodeID="C16336">
          <nciodm:CDISCSynonym>BHUTAN</nciodm:CDISCSynonym>
          <nciodm:CDISCDefinition>A country in Southern Asia, between China and India. (NCI)</nciodm:CDISCDefinition>
          <nciodm:PreferredTerm>Bhutan</nciodm:PreferredTerm>
        </EnumeratedItem>
        <EnumeratedItem CodedValue="BVT" nciodm:ExtCodeID="C20104">
          <nciodm:CDISCSynonym>BOUVET ISLAND</nciodm:CDISCSynonym>
          <nciodm:CDISCDefinition>An island in the South Atlantic Ocean, south-southwest of the Cape of Good Hope (South Africa). (NCI)</nciodm:CDISCDefinition>
          <nciodm:PreferredTerm>Bouvet Island</nciodm:PreferredTerm>
        </EnumeratedItem>
        <EnumeratedItem CodedValue="BWA" nciodm:ExtCodeID="C16363">
          <nciodm:CDISCSynonym>BOTSWANA</nciodm:CDISCSynonym>
          <nciodm:CDISCDefinition>A country in Southern Africa, north of South Africa. (NCI)</nciodm:CDISCDefinition>
          <nciodm:PreferredTerm>Botswana</nciodm:PreferredTerm>
        </EnumeratedItem>
        <EnumeratedItem CodedValue="CAF" nciodm:ExtCodeID="C16409">
          <nciodm:CDISCSynonym>CENTRAL AFRICAN REPUBLIC</nciodm:CDISCSynonym>
          <nciodm:CDISCDefinition>A country in Central Africa, north of Democratic Republic of the Congo. (NCI)</nciodm:CDISCDefinition>
          <nciodm:PreferredTerm>Central African Republic</nciodm:PreferredTerm>
        </EnumeratedItem>
        <EnumeratedItem CodedValue="CAN" nciodm:ExtCodeID="C16380">
          <nciodm:CDISCSynonym>CANADA</nciodm:CDISCSynonym>
          <nciodm:CDISCDefinition>A country in Northern North America, bordering the North Atlantic Ocean on the east, North Pacific Ocean on the west, and the Arctic Ocean on the north, north of the conterminous US. (NCI)</nciodm:CDISCDefinition>
          <nciodm:PreferredTerm>Canada</nciodm:PreferredTerm>
        </EnumeratedItem>
        <EnumeratedItem CodedValue="CCK" nciodm:ExtCodeID="C16445">
          <nciodm:CDISCSynonym>COCOS (KEELING) ISLANDS</nciodm:CDISCSynonym>
          <nciodm:CDISCDefinition>A group of islands in the Indian Ocean, south of Indonesia, about halfway from Australia to Sri Lanka. (NCI)</nciodm:CDISCDefinition>
          <nciodm:PreferredTerm>Cocos (Keeling) Islands</nciodm:PreferredTerm>
        </EnumeratedItem>
        <EnumeratedItem CodedValue="CHE" nciodm:ExtCodeID="C17181">
          <nciodm:CDISCSynonym>SWITZERLAND</nciodm:CDISCSynonym>
          <nciodm:CDISCDefinition>A country in Central Europe, east of France, north of Italy. (NCI)</nciodm:CDISCDefinition>
          <nciodm:PreferredTerm>Switzerland</nciodm:PreferredTerm>
        </EnumeratedItem>
        <EnumeratedItem CodedValue="CHL" nciodm:ExtCodeID="C16427">
          <nciodm:CDISCSynonym>CHILE</nciodm:CDISCSynonym>
          <nciodm:CDISCDefinition>A country in Southern South America, bordering the South Atlantic Ocean and South Pacific Ocean, between Argentina and Peru. (NCI)</nciodm:CDISCDefinition>
          <nciodm:PreferredTerm>Chile</nciodm:PreferredTerm>
        </EnumeratedItem>
        <EnumeratedItem CodedValue="CHN" nciodm:ExtCodeID="C16428">
          <nciodm:CDISCSynonym>CHINA</nciodm:CDISCSynonym>
          <nciodm:CDISCDefinition>A country in Eastern Asia, bordering the East China Sea, Korea Bay, Yellow Sea, and South China Sea, between North Korea and Vietnam. (NCI)</nciodm:CDISCDefinition>
          <nciodm:PreferredTerm>China</nciodm:PreferredTerm>
        </EnumeratedItem>
        <EnumeratedItem CodedValue="CIV" nciodm:ExtCodeID="C16762">
          <nciodm:CDISCSynonym>COTE D'IVOIRE</nciodm:CDISCSynonym>
          <nciodm:CDISCDefinition>A country in Western Africa, bordering the North Atlantic Ocean, between Ghana and Liberia. (NCI)</nciodm:CDISCDefinition>
          <nciodm:PreferredTerm>Cote d'Ivoire</nciodm:PreferredTerm>
        </EnumeratedItem>
        <EnumeratedItem CodedValue="CMR" nciodm:ExtCodeID="C16379">
          <nciodm:CDISCSynonym>CAMEROON</nciodm:CDISCSynonym>
          <nciodm:CDISCDefinition>A country in Western Africa, bordering the Bight of Biafra, between Equatorial Guinea and Nigeria. (NCI)</nciodm:CDISCDefinition>
          <nciodm:PreferredTerm>Cameroon</nciodm:PreferredTerm>
        </EnumeratedItem>
        <EnumeratedItem CodedValue="COD" nciodm:ExtCodeID="C17266">
          <nciodm:CDISCSynonym>DEMOCRATIC REPUBLIC OF THE CONGO</nciodm:CDISCSynonym>
          <nciodm:CDISCDefinition>A country in Central Africa, northeast of Angola. (NCI)</nciodm:CDISCDefinition>
          <nciodm:PreferredTerm>Congo, the Democratic Republic of the</nciodm:PreferredTerm>
        </EnumeratedItem>
        <EnumeratedItem CodedValue="COG" nciodm:ExtCodeID="C16467">
          <nciodm:CDISCSynonym>CONGO</nciodm:CDISCSynonym>
          <nciodm:CDISCDefinition>A country in Western Africa, bordering the South Atlantic Ocean, between Angola and Gabon. (NCI)</nciodm:CDISCDefinition>
          <nciodm:PreferredTerm>Congo</nciodm:PreferredTerm>
        </EnumeratedItem>
        <EnumeratedItem CodedValue="COK" nciodm:ExtCodeID="C16469">
          <nciodm:CDISCSynonym>COOK ISLANDS</nciodm:CDISCSynonym>
          <nciodm:CDISCDefinition>A group of islands in the South Pacific Ocean, about one-half of the way from Hawaii to New Zealand. (NCI)</nciodm:CDISCDefinition>
          <nciodm:PreferredTerm>Cook Islands</nciodm:PreferredTerm>
        </EnumeratedItem>
        <EnumeratedItem CodedValue="COL" nciodm:ExtCodeID="C16449">
          <nciodm:CDISCSynonym>COLOMBIA</nciodm:CDISCSynonym>
          <nciodm:CDISCDefinition>A country in Northern South America, bordering the Caribbean Sea, between Panama and Venezuela, and bordering the North Pacific Ocean, between Ecuador and Panama. (NCI)</nciodm:CDISCDefinition>
          <nciodm:PreferredTerm>Colombia</nciodm:PreferredTerm>
        </EnumeratedItem>
        <EnumeratedItem CodedValue="COM" nciodm:ExtCodeID="C16458">
          <nciodm:CDISCSynonym>COMOROS</nciodm:CDISCSynonym>
          <nciodm:CDISCDefinition>A group of islands in the Mozambique Channel, about two-thirds of the way between northern Madagascar and northern Mozambique. (NCI)</nciodm:CDISCDefinition>
          <nciodm:PreferredTerm>Comoros</nciodm:PreferredTerm>
        </EnumeratedItem>
        <EnumeratedItem CodedValue="CPV" nciodm:ExtCodeID="C16382">
          <nciodm:CDISCSynonym>CAPE VERDE</nciodm:CDISCSynonym>
          <nciodm:CDISCDefinition>A group of islands in the North Atlantic Ocean, west of Senegal. (NCI)</nciodm:CDISCDefinition>
          <nciodm:PreferredTerm>Cape Verde</nciodm:PreferredTerm>
        </EnumeratedItem>
        <EnumeratedItem CodedValue="CRI" nciodm:ExtCodeID="C16470">
          <nciodm:CDISCSynonym>COSTA RICA</nciodm:CDISCSynonym>
          <nciodm:CDISCDefinition>A country in Central America, bordering both the Caribbean Sea and the North Pacific Ocean, between Nicaragua and Panama. (NCI)</nciodm:CDISCDefinition>
          <nciodm:PreferredTerm>Costa Rica</nciodm:PreferredTerm>
        </EnumeratedItem>
        <EnumeratedItem CodedValue="CUB" nciodm:ExtCodeID="C16477">
          <nciodm:CDISCSynonym>CUBA</nciodm:CDISCSynonym>
          <nciodm:CDISCDefinition>An island between the Caribbean Sea and the North Atlantic Ocean, 150 km south of Key West, Florida. (NCI)</nciodm:CDISCDefinition>
          <nciodm:PreferredTerm>Cuba</nciodm:PreferredTerm>
        </EnumeratedItem>
        <EnumeratedItem CodedValue="CXR" nciodm:ExtCodeID="C44482">
          <nciodm:CDISCSynonym>CHRISTMAS ISLAND</nciodm:CDISCSynonym>
          <nciodm:CDISCDefinition>An Australian-administered island in the eastern Indian Ocean south of Java, Indonesia. (NCI)</nciodm:CDISCDefinition>
          <nciodm:PreferredTerm>Christmas Island</nciodm:PreferredTerm>
        </EnumeratedItem>
        <EnumeratedItem CodedValue="CYM" nciodm:ExtCodeID="C16391">
          <nciodm:CDISCSynonym>CAYMAN ISLANDS</nciodm:CDISCSynonym>
          <nciodm:CDISCDefinition>An island group in the Caribbean Sea, nearly one-half of the way from Cuba to Honduras. (NCI)</nciodm:CDISCDefinition>
          <nciodm:PreferredTerm>Cayman Islands</nciodm:PreferredTerm>
        </EnumeratedItem>
        <EnumeratedItem CodedValue="CYP" nciodm:ExtCodeID="C16480">
          <nciodm:CDISCSynonym>CYPRUS</nciodm:CDISCSynonym>
          <nciodm:CDISCDefinition>An island in the Mediterranean Sea, south of Turkey. (NCI)</nciodm:CDISCDefinition>
          <nciodm:PreferredTerm>Cyprus</nciodm:PreferredTerm>
        </EnumeratedItem>
        <EnumeratedItem CodedValue="CZE" nciodm:ExtCodeID="C17668">
          <nciodm:CDISCSynonym>CZECH REPUBLIC</nciodm:CDISCSynonym>
          <nciodm:CDISCDefinition>A country in Central Europe, southeast of Germany. (NCI)</nciodm:CDISCDefinition>
          <nciodm:PreferredTerm>Czech Republic</nciodm:PreferredTerm>
        </EnumeratedItem>
        <EnumeratedItem CodedValue="DEU" nciodm:ExtCodeID="C16636">
          <nciodm:CDISCSynonym>GERMANY</nciodm:CDISCSynonym>
          <nciodm:CDISCDefinition>A country in Central Europe, bordering the Baltic Sea and the North Sea, between the Netherlands and Poland, south of Denmark. (NCI)</nciodm:CDISCDefinition>
          <nciodm:PreferredTerm>Germany</nciodm:PreferredTerm>
        </EnumeratedItem>
        <EnumeratedItem CodedValue="DJI" nciodm:ExtCodeID="C16506">
          <nciodm:CDISCSynonym>DJIBOUTI</nciodm:CDISCSynonym>
          <nciodm:CDISCDefinition>A country in Eastern Africa, bordering the Gulf of Aden and the Red Sea, between Eritrea and Somalia. (NCI)</nciodm:CDISCDefinition>
          <nciodm:PreferredTerm>Djibouti</nciodm:PreferredTerm>
        </EnumeratedItem>
        <EnumeratedItem CodedValue="DMA" nciodm:ExtCodeID="C16519">
          <nciodm:CDISCSynonym>DOMINICA</nciodm:CDISCSynonym>
          <nciodm:CDISCDefinition>An island between the Caribbean Sea and the North Atlantic Ocean, about one-half of the way from Puerto Rico to Trinidad and Tobago. (NCI)</nciodm:CDISCDefinition>
          <nciodm:PreferredTerm>Dominica</nciodm:PreferredTerm>
        </EnumeratedItem>
        <EnumeratedItem CodedValue="DNK" nciodm:ExtCodeID="C16496">
          <nciodm:CDISCSynonym>DENMARK</nciodm:CDISCSynonym>
          <nciodm:CDISCDefinition>A country in Northern Europe, bordering the Baltic Sea and the North Sea, on a peninsula north of Germany (Jutland); also includes two major islands (Sjaelland and Fyn). (NCI)</nciodm:CDISCDefinition>
          <nciodm:PreferredTerm>Denmark</nciodm:PreferredTerm>
        </EnumeratedItem>
        <EnumeratedItem CodedValue="DOM" nciodm:ExtCodeID="C16520">
          <nciodm:CDISCSynonym>DOMINICAN REPUBLIC</nciodm:CDISCSynonym>
          <nciodm:CDISCDefinition>A country comprising the eastern two-thirds of the island of Hispaniola, between the Caribbean Sea and the North Atlantic Ocean, east of Haiti. (NCI)</nciodm:CDISCDefinition>
          <nciodm:PreferredTerm>Dominican Republic</nciodm:PreferredTerm>
        </EnumeratedItem>
        <EnumeratedItem CodedValue="DZA" nciodm:ExtCodeID="C16274">
          <nciodm:CDISCSynonym>ALGERIA</nciodm:CDISCSynonym>
          <nciodm:CDISCDefinition>A country in Northern Africa, bordering the Mediterranean Sea, between Morocco and Tunisia. (NCI)</nciodm:CDISCDefinition>
          <nciodm:PreferredTerm>Algeria</nciodm:PreferredTerm>
        </EnumeratedItem>
        <EnumeratedItem CodedValue="ECU" nciodm:ExtCodeID="C16528">
          <nciodm:CDISCSynonym>ECUADOR</nciodm:CDISCSynonym>
          <nciodm:CDISCDefinition>A country in Western South America, bordering the Pacific Ocean at the Equator, between Colombia and Peru. (NCI)</nciodm:CDISCDefinition>
          <nciodm:PreferredTerm>Ecuador</nciodm:PreferredTerm>
        </EnumeratedItem>
        <EnumeratedItem CodedValue="EGY" nciodm:ExtCodeID="C16530">
          <nciodm:CDISCSynonym>EGYPT</nciodm:CDISCSynonym>
          <nciodm:CDISCDefinition>A country in Northern Africa, bordering the Mediterranean Sea, between Libya and the Gaza Strip. (NCI)</nciodm:CDISCDefinition>
          <nciodm:PreferredTerm>Egypt</nciodm:PreferredTerm>
        </EnumeratedItem>
        <EnumeratedItem CodedValue="ERI" nciodm:ExtCodeID="C16558">
          <nciodm:CDISCSynonym>ERITREA</nciodm:CDISCSynonym>
          <nciodm:CDISCDefinition>A country in Eastern Africa, bordering the Red Sea, between Djibouti and Sudan. (NCI)</nciodm:CDISCDefinition>
          <nciodm:PreferredTerm>Eritrea</nciodm:PreferredTerm>
        </EnumeratedItem>
        <EnumeratedItem CodedValue="ESH" nciodm:ExtCodeID="C20113">
          <nciodm:CDISCSynonym>WESTERN SAHARA</nciodm:CDISCSynonym>
          <nciodm:CDISCDefinition>A country in Northern Africa, bordering the North Atlantic Ocean, between Mauritania and Morocco. (NCI)</nciodm:CDISCDefinition>
          <nciodm:PreferredTerm>Western Sahara</nciodm:PreferredTerm>
        </EnumeratedItem>
        <EnumeratedItem CodedValue="ESP" nciodm:ExtCodeID="C17152">
          <nciodm:CDISCSynonym>SPAIN</nciodm:CDISCSynonym>
          <nciodm:CDISCDefinition>A country in Southwestern Europe, bordering the Bay of Biscay, Mediterranean Sea, North Atlantic Ocean, and Pyrenees Mountains, southwest of France. (NCI)</nciodm:CDISCDefinition>
          <nciodm:PreferredTerm>Spain</nciodm:PreferredTerm>
        </EnumeratedItem>
        <EnumeratedItem CodedValue="EST" nciodm:ExtCodeID="C16562">
          <nciodm:CDISCSynonym>ESTONIA</nciodm:CDISCSynonym>
          <nciodm:CDISCDefinition>A country in Eastern Europe, bordering the Baltic Sea and Gulf of Finland, between Latvia and Russia. (NCI)</nciodm:CDISCDefinition>
          <nciodm:PreferredTerm>Estonia</nciodm:PreferredTerm>
        </EnumeratedItem>
        <EnumeratedItem CodedValue="ETH" nciodm:ExtCodeID="C16563">
          <nciodm:CDISCSynonym>ETHIOPIA</nciodm:CDISCSynonym>
          <nciodm:CDISCDefinition>A country in Eastern Africa, west of Somalia. (NCI)</nciodm:CDISCDefinition>
          <nciodm:PreferredTerm>Ethiopia</nciodm:PreferredTerm>
        </EnumeratedItem>
        <EnumeratedItem CodedValue="FIN" nciodm:ExtCodeID="C16584">
          <nciodm:CDISCSynonym>FINLAND</nciodm:CDISCSynonym>
          <nciodm:CDISCDefinition>A country in Northern Europe, bordering the Baltic Sea, Gulf of Bothnia, and Gulf of Finland, between Sweden and Russia. (NCI)</nciodm:CDISCDefinition>
          <nciodm:PreferredTerm>Finland</nciodm:PreferredTerm>
        </EnumeratedItem>
        <EnumeratedItem CodedValue="FJI" nciodm:ExtCodeID="C16582">
          <nciodm:CDISCSynonym>FIJI</nciodm:CDISCSynonym>
          <nciodm:CDISCDefinition>An island group in the South Pacific Ocean, about two-thirds of the way from Hawaii to New Zealand. (NCI)</nciodm:CDISCDefinition>
          <nciodm:PreferredTerm>Fiji</nciodm:PreferredTerm>
        </EnumeratedItem>
        <EnumeratedItem CodedValue="FLK" nciodm:ExtCodeID="C17954">
          <nciodm:CDISCSynonym>FALKLAND ISLANDS</nciodm:CDISCSynonym>
          <nciodm:CDISCDefinition>Islands in the South Atlantic Ocean, east of southern Argentina. (NCI)</nciodm:CDISCDefinition>
          <nciodm:PreferredTerm>Falkland Islands (Malvinas)</nciodm:PreferredTerm>
        </EnumeratedItem>
        <EnumeratedItem CodedValue="FRA" nciodm:ExtCodeID="C16592">
          <nciodm:CDISCSynonym>FRANCE</nciodm:CDISCSynonym>
          <nciodm:CDISCDefinition>A country in Western Europe, bordering the Bay of Biscay and English Channel, between Belgium and Spain, southeast of the UK; bordering the Mediterranean Sea, between Italy and Spain. (NCI)</nciodm:CDISCDefinition>
          <nciodm:PreferredTerm>France</nciodm:PreferredTerm>
        </EnumeratedItem>
        <EnumeratedItem CodedValue="FRO" nciodm:ExtCodeID="C16573">
          <nciodm:CDISCSynonym>FAROE ISLANDS</nciodm:CDISCSynonym>
          <nciodm:CDISCDefinition>An island group between the Norwegian Sea and the North Atlantic Ocean, about one-half of the way from Iceland to Norway. (NCI)</nciodm:CDISCDefinition>
          <nciodm:PreferredTerm>Faroe Islands</nciodm:PreferredTerm>
        </EnumeratedItem>
        <EnumeratedItem CodedValue="FSM" nciodm:ExtCodeID="C17881">
          <nciodm:CDISCSynonym>MICRONESIA, FEDERATED STATES OF</nciodm:CDISCSynonym>
          <nciodm:CDISCDefinition>An island group in the North Pacific Ocean, about three-quarters of the way from Hawaii to Indonesia. (NCI)</nciodm:CDISCDefinition>
          <nciodm:PreferredTerm>Micronesia, Federated States of</nciodm:PreferredTerm>
        </EnumeratedItem>
        <EnumeratedItem CodedValue="GAB" nciodm:ExtCodeID="C16596">
          <nciodm:CDISCSynonym>GABON</nciodm:CDISCSynonym>
          <nciodm:CDISCDefinition>A country in Western Africa, bordering the Atlantic Ocean at the Equator, between Republic of the Congo and Equatorial Guinea. (NCI)</nciodm:CDISCDefinition>
          <nciodm:PreferredTerm>Gabon</nciodm:PreferredTerm>
        </EnumeratedItem>
        <EnumeratedItem CodedValue="GBR" nciodm:ExtCodeID="C17233">
          <nciodm:CDISCSynonym>UNITED KINGDOM</nciodm:CDISCSynonym>
          <nciodm:CDISCDefinition>A country in Western Europe, comprising islands, including the northern one-sixth of the island of Ireland, between the North Atlantic Ocean and the North Sea, northwest of France. (NCI)</nciodm:CDISCDefinition>
          <nciodm:PreferredTerm>United Kingdom</nciodm:PreferredTerm>
        </EnumeratedItem>
        <EnumeratedItem CodedValue="GEO" nciodm:ExtCodeID="C16634">
          <nciodm:CDISCSynonym>GEORGIA</nciodm:CDISCSynonym>
          <nciodm:CDISCDefinition>A country in Southwestern Asia, bordering the Black Sea, between Turkey and Russia. (NCI)</nciodm:CDISCDefinition>
          <nciodm:PreferredTerm>Georgia</nciodm:PreferredTerm>
        </EnumeratedItem>
        <EnumeratedItem CodedValue="GGY" nciodm:ExtCodeID="C64375">
          <nciodm:CDISCSynonym>GUERNSEY</nciodm:CDISCSynonym>
          <nciodm:CDISCDefinition>The island of Guernsey and the other Channel Islands represent the last remnants of the medieval Dukedom of Normandy, which held sway in both France and England. Guernsey is a British crown dependency, but is not part of the UK. (NCI)</nciodm:CDISCDefinition>
          <nciodm:PreferredTerm>Guernsey</nciodm:PreferredTerm>
        </EnumeratedItem>
        <EnumeratedItem CodedValue="GHA" nciodm:ExtCodeID="C26330">
          <nciodm:CDISCSynonym>GHANA</nciodm:CDISCSynonym>
          <nciodm:CDISCDefinition>A country in Western Africa, bordering the Gulf of Guinea, between Cote d'Ivoire and Togo. (NCI)</nciodm:CDISCDefinition>
          <nciodm:PreferredTerm>Ghana</nciodm:PreferredTerm>
        </EnumeratedItem>
        <EnumeratedItem CodedValue="GIB" nciodm:ExtCodeID="C16638">
          <nciodm:CDISCSynonym>GIBRALTAR</nciodm:CDISCSynonym>
          <nciodm:CDISCDefinition>A dependency in Southwestern Europe, bordering the Strait of Gibraltar, on the southern coast of Spain. (NCI)</nciodm:CDISCDefinition>
          <nciodm:PreferredTerm>Gibraltar</nciodm:PreferredTerm>
        </EnumeratedItem>
        <EnumeratedItem CodedValue="GIN" nciodm:ExtCodeID="C16655">
          <nciodm:CDISCSynonym>GUINEA</nciodm:CDISCSynonym>
          <nciodm:CDISCDefinition>A country in Western Africa, bordering the North Atlantic Ocean, between Guinea-Bissau and Sierra Leone. (NCI)</nciodm:CDISCDefinition>
          <nciodm:PreferredTerm>Guinea</nciodm:PreferredTerm>
        </EnumeratedItem>
        <EnumeratedItem CodedValue="GLP" nciodm:ExtCodeID="C16651">
          <nciodm:CDISCSynonym>GUADELOUPE</nciodm:CDISCSynonym>
          <nciodm:CDISCDefinition>Islands in the eastern Caribbean Sea, southeast of Puerto Rico. (NCI)</nciodm:CDISCDefinition>
          <nciodm:PreferredTerm>Guadeloupe</nciodm:PreferredTerm>
        </EnumeratedItem>
        <EnumeratedItem CodedValue="GMB" nciodm:ExtCodeID="C16598">
          <nciodm:CDISCSynonym>GAMBIA</nciodm:CDISCSynonym>
          <nciodm:CDISCDefinition>A country in Western Africa, bordering the North Atlantic Ocean and Senegal. (NCI)</nciodm:CDISCDefinition>
          <nciodm:PreferredTerm>Gambia</nciodm:PreferredTerm>
        </EnumeratedItem>
        <EnumeratedItem CodedValue="GNB" nciodm:ExtCodeID="C16656">
          <nciodm:CDISCSynonym>GUINEA-BISSAU</nciodm:CDISCSynonym>
          <nciodm:CDISCDefinition>A country in Western Africa, bordering the North Atlantic Ocean, between Guinea and Senegal. (NCI)</nciodm:CDISCDefinition>
          <nciodm:PreferredTerm>Guinea-Bissau</nciodm:PreferredTerm>
        </EnumeratedItem>
        <EnumeratedItem CodedValue="GNQ" nciodm:ExtCodeID="C16557">
          <nciodm:CDISCSynonym>EQUATORIAL GUINEA</nciodm:CDISCSynonym>
          <nciodm:CDISCDefinition>A country in Western Africa, bordering the Bight of Biafra, between Cameroon and Gabon; composed of a mainland portion and five inhabited islands. (NCI)</nciodm:CDISCDefinition>
          <nciodm:PreferredTerm>Equatorial Guinea</nciodm:PreferredTerm>
        </EnumeratedItem>
        <EnumeratedItem CodedValue="GRC" nciodm:ExtCodeID="C16645">
          <nciodm:CDISCSynonym>GREECE</nciodm:CDISCSynonym>
          <nciodm:CDISCDefinition>A country in Southern Europe, bordering the Aegean Sea, Ionian Sea, and the Mediterranean Sea, between Albania and Turkey. (NCI)</nciodm:CDISCDefinition>
          <nciodm:PreferredTerm>Greece</nciodm:PreferredTerm>
        </EnumeratedItem>
        <EnumeratedItem CodedValue="GRD" nciodm:ExtCodeID="C16647">
          <nciodm:CDISCSynonym>GRENADA</nciodm:CDISCSynonym>
          <nciodm:CDISCDefinition>An island between the Caribbean Sea and Atlantic Ocean, north of Trinidad and Tobago. (NCI)</nciodm:CDISCDefinition>
          <nciodm:PreferredTerm>Grenada</nciodm:PreferredTerm>
        </EnumeratedItem>
        <EnumeratedItem CodedValue="GRL" nciodm:ExtCodeID="C16646">
          <nciodm:CDISCSynonym>GREENLAND</nciodm:CDISCSynonym>
          <nciodm:CDISCDefinition>An island between the Arctic Ocean and the North Atlantic Ocean, northeast of Canada. (NCI)</nciodm:CDISCDefinition>
          <nciodm:PreferredTerm>Greenland</nciodm:PreferredTerm>
        </EnumeratedItem>
        <EnumeratedItem CodedValue="GTM" nciodm:ExtCodeID="C16654">
          <nciodm:CDISCSynonym>GUATEMALA</nciodm:CDISCSynonym>
          <nciodm:CDISCDefinition>A country in Central America, bordering the Caribbean Sea, between Honduras and Belize and bordering the North Pacific Ocean, between El Salvador and Mexico. (NCI)</nciodm:CDISCDefinition>
          <nciodm:PreferredTerm>Guatemala</nciodm:PreferredTerm>
        </EnumeratedItem>
        <EnumeratedItem CodedValue="GUF" nciodm:ExtCodeID="C16593">
          <nciodm:CDISCSynonym>FRENCH GUIANA</nciodm:CDISCSynonym>
          <nciodm:CDISCDefinition>A country in Northern South America, bordering the North Atlantic Ocean, between Brazil and Suriname. (NCI)</nciodm:CDISCDefinition>
          <nciodm:PreferredTerm>French Guiana</nciodm:PreferredTerm>
        </EnumeratedItem>
        <EnumeratedItem CodedValue="GUM" nciodm:ExtCodeID="C16652">
          <nciodm:CDISCSynonym>GUAM</nciodm:CDISCSynonym>
          <nciodm:CDISCDefinition>Island in the North Pacific Ocean, about three-quarters of the way from Hawaii to the Philippines. (NCI)</nciodm:CDISCDefinition>
          <nciodm:PreferredTerm>Guam</nciodm:PreferredTerm>
        </EnumeratedItem>
        <EnumeratedItem CodedValue="GUY" nciodm:ExtCodeID="C16657">
          <nciodm:CDISCSynonym>GUYANA</nciodm:CDISCSynonym>
          <nciodm:CDISCDefinition>A country in Northern South America, bordering the North Atlantic Ocean, between Suriname and Venezuela. (NCI)</nciodm:CDISCDefinition>
          <nciodm:PreferredTerm>Guyana</nciodm:PreferredTerm>
        </EnumeratedItem>
        <EnumeratedItem CodedValue="HKG" nciodm:ExtCodeID="C16695">
          <nciodm:CDISCSynonym>HONG KONG</nciodm:CDISCSynonym>
          <nciodm:CDISCDefinition>A special administrative region of China, bordering the South China Sea and China. (NCI)</nciodm:CDISCDefinition>
          <nciodm:PreferredTerm>Hong Kong</nciodm:PreferredTerm>
        </EnumeratedItem>
        <EnumeratedItem CodedValue="HMD" nciodm:ExtCodeID="C20106">
          <nciodm:CDISCSynonym>HEARD ISLAND AND MCDONALD ISLANDS</nciodm:CDISCSynonym>
          <nciodm:CDISCDefinition>Islands in the Indian Ocean, about two-thirds of the way from Madagascar to Antarctica. (NCI)</nciodm:CDISCDefinition>
          <nciodm:PreferredTerm>Heard Island and McDonald Islands</nciodm:PreferredTerm>
        </EnumeratedItem>
        <EnumeratedItem CodedValue="HND" nciodm:ExtCodeID="C16694">
          <nciodm:CDISCSynonym>HONDURAS</nciodm:CDISCSynonym>
          <nciodm:CDISCDefinition>A country in Central America, bordering the Caribbean Sea, between Guatemala and Nicaragua and bordering the North Pacific Ocean, between El Salvador and Nicaragua. (NCI)</nciodm:CDISCDefinition>
          <nciodm:PreferredTerm>Honduras</nciodm:PreferredTerm>
        </EnumeratedItem>
        <EnumeratedItem CodedValue="HRV" nciodm:ExtCodeID="C16474">
          <nciodm:CDISCSynonym>CROATIA</nciodm:CDISCSynonym>
          <nciodm:CDISCDefinition>A country in Southeastern Europe, bordering the Adriatic Sea, between Bosnia and Herzegovina and Slovenia. (NCI)</nciodm:CDISCDefinition>
          <nciodm:PreferredTerm>Croatia</nciodm:PreferredTerm>
        </EnumeratedItem>
        <EnumeratedItem CodedValue="HTI" nciodm:ExtCodeID="C16660">
          <nciodm:CDISCSynonym>HAITI</nciodm:CDISCSynonym>
          <nciodm:CDISCDefinition>A country comprising the western one-third of the island of Hispaniola, between the Caribbean Sea and the North Atlantic Ocean, west of the Dominican Republic. (NCI)</nciodm:CDISCDefinition>
          <nciodm:PreferredTerm>Haiti</nciodm:PreferredTerm>
        </EnumeratedItem>
        <EnumeratedItem CodedValue="HUN" nciodm:ExtCodeID="C16699">
          <nciodm:CDISCSynonym>HUNGARY</nciodm:CDISCSynonym>
          <nciodm:CDISCDefinition>A country in Central Europe, northwest of Romania. (NCI)</nciodm:CDISCDefinition>
          <nciodm:PreferredTerm>Hungary</nciodm:PreferredTerm>
        </EnumeratedItem>
        <EnumeratedItem CodedValue="IDN" nciodm:ExtCodeID="C16728">
          <nciodm:CDISCSynonym>INDONESIA</nciodm:CDISCSynonym>
          <nciodm:CDISCDefinition>A country in Southeastern Asia, comprising the archipelago between the Indian Ocean and the Pacific Ocean. (NCI)</nciodm:CDISCDefinition>
          <nciodm:PreferredTerm>Indonesia</nciodm:PreferredTerm>
        </EnumeratedItem>
        <EnumeratedItem CodedValue="IND" nciodm:ExtCodeID="C16727">
          <nciodm:CDISCSynonym>INDIA</nciodm:CDISCSynonym>
          <nciodm:CDISCDefinition>A country in Southern Asia, bordering the Arabian Sea and the Bay of Bengal, between Burma and Pakistan. (NCI)</nciodm:CDISCDefinition>
          <nciodm:PreferredTerm>India</nciodm:PreferredTerm>
        </EnumeratedItem>
        <EnumeratedItem CodedValue="IMN" nciodm:ExtCodeID="C44480">
          <nciodm:CDISCSynonym>ISLE OF MAN</nciodm:CDISCSynonym>
          <nciodm:CDISCDefinition>An island in the Irish Sea, between Great Britain and Ireland. (NCI)</nciodm:CDISCDefinition>
          <nciodm:PreferredTerm>Isle of Man</nciodm:PreferredTerm>
        </EnumeratedItem>
        <EnumeratedItem CodedValue="IOT" nciodm:ExtCodeID="C16365">
          <nciodm:CDISCSynonym>BRITISH INDIAN OCEAN TERRITORY</nciodm:CDISCSynonym>
          <nciodm:CDISCDefinition>An archipelago in the Indian Ocean, about one-half the way from Africa to Indonesia. (NCI)</nciodm:CDISCDefinition>
          <nciodm:PreferredTerm>British Indian Ocean Territory</nciodm:PreferredTerm>
        </EnumeratedItem>
        <EnumeratedItem CodedValue="IRL" nciodm:ExtCodeID="C16757">
          <nciodm:CDISCSynonym>IRELAND</nciodm:CDISCSynonym>
          <nciodm:CDISCDefinition>A country in Western Europe, occupying five-sixths of the island of Ireland in the North Atlantic Ocean, west of Great Britain. (NCI)</nciodm:CDISCDefinition>
          <nciodm:PreferredTerm>Ireland</nciodm:PreferredTerm>
        </EnumeratedItem>
        <EnumeratedItem CodedValue="IRN" nciodm:ExtCodeID="C16755">
          <nciodm:CDISCSynonym>IRAN</nciodm:CDISCSynonym>
          <nciodm:CDISCDefinition>A country in the Middle East, bordering the Gulf of Oman, the Persian Gulf, and the Caspian Sea, between Iraq and Pakistan. (NCI)</nciodm:CDISCDefinition>
          <nciodm:PreferredTerm>Iran, Islamic Republic of</nciodm:PreferredTerm>
        </EnumeratedItem>
        <EnumeratedItem CodedValue="IRQ" nciodm:ExtCodeID="C16756">
          <nciodm:CDISCSynonym>IRAQ</nciodm:CDISCSynonym>
          <nciodm:CDISCDefinition>A country in the Middle East, bordering the Persian Gulf, between Iran and Kuwait. (NCI)</nciodm:CDISCDefinition>
          <nciodm:PreferredTerm>Iraq</nciodm:PreferredTerm>
        </EnumeratedItem>
        <EnumeratedItem CodedValue="ISL" nciodm:ExtCodeID="C16704">
          <nciodm:CDISCSynonym>ICELAND</nciodm:CDISCSynonym>
          <nciodm:CDISCDefinition>A country in Northern Europe, island between the Greenland Sea and the North Atlantic Ocean, northwest of the UK. (NCI)</nciodm:CDISCDefinition>
          <nciodm:PreferredTerm>Iceland</nciodm:PreferredTerm>
        </EnumeratedItem>
        <EnumeratedItem CodedValue="ISR" nciodm:ExtCodeID="C16760">
          <nciodm:CDISCSynonym>ISRAEL</nciodm:CDISCSynonym>
          <nciodm:CDISCDefinition>A country in the Middle East, bordering the Mediterranean Sea, between Egypt and Lebanon. (NCI)</nciodm:CDISCDefinition>
          <nciodm:PreferredTerm>Israel</nciodm:PreferredTerm>
        </EnumeratedItem>
        <EnumeratedItem CodedValue="ITA" nciodm:ExtCodeID="C16761">
          <nciodm:CDISCSynonym>ITALY</nciodm:CDISCSynonym>
          <nciodm:CDISCDefinition>A country in Southern Europe, occupying a peninsula extending into the central Mediterranean Sea, northeast of Tunisia. (NCI)</nciodm:CDISCDefinition>
          <nciodm:PreferredTerm>Italy</nciodm:PreferredTerm>
        </EnumeratedItem>
        <EnumeratedItem CodedValue="JAM" nciodm:ExtCodeID="C16763">
          <nciodm:CDISCSynonym>JAMAICA</nciodm:CDISCSynonym>
          <nciodm:CDISCDefinition>An island in the Caribbean Sea, south of Cuba. (NCI)</nciodm:CDISCDefinition>
          <nciodm:PreferredTerm>Jamaica</nciodm:PreferredTerm>
        </EnumeratedItem>
        <EnumeratedItem CodedValue="JOR" nciodm:ExtCodeID="C16765">
          <nciodm:CDISCSynonym>JORDAN</nciodm:CDISCSynonym>
          <nciodm:CDISCDefinition>A country in the Middle East, northwest of Saudi Arabia. (NCI)</nciodm:CDISCDefinition>
          <nciodm:PreferredTerm>Jordan</nciodm:PreferredTerm>
        </EnumeratedItem>
        <EnumeratedItem CodedValue="JPN" nciodm:ExtCodeID="C16764">
          <nciodm:CDISCSynonym>JAPAN</nciodm:CDISCSynonym>
          <nciodm:CDISCDefinition>A country in Eastern Asia, occupying an island chain between the North Pacific Ocean and the Sea of Japan, east of the Korean Peninsula. (NCI)</nciodm:CDISCDefinition>
          <nciodm:PreferredTerm>Japan</nciodm:PreferredTerm>
        </EnumeratedItem>
        <EnumeratedItem CodedValue="JEY" nciodm:ExtCodeID="C64374">
          <nciodm:CDISCSynonym>JERSEY</nciodm:CDISCSynonym>
          <nciodm:CDISCDefinition>Jersey and the other Channel Islands represent the last remnants of the medieval Dukedom of Normandy that held sway in both France and England. Jersey is a British crown dependency, but is not part of the UK. (NCI)</nciodm:CDISCDefinition>
          <nciodm:PreferredTerm>Jersey</nciodm:PreferredTerm>
        </EnumeratedItem>
        <EnumeratedItem CodedValue="KAZ" nciodm:ExtCodeID="C20107">
          <nciodm:CDISCSynonym>KAZAKHSTAN</nciodm:CDISCSynonym>
          <nciodm:CDISCDefinition>A country in Central Asia, northwest of China. (NCI)</nciodm:CDISCDefinition>
          <nciodm:PreferredTerm>Kazakhstan</nciodm:PreferredTerm>
        </EnumeratedItem>
        <EnumeratedItem CodedValue="KEN" nciodm:ExtCodeID="C16769">
          <nciodm:CDISCSynonym>KENYA</nciodm:CDISCSynonym>
          <nciodm:CDISCDefinition>A country in Eastern Africa, bordering the Indian Ocean, between Somalia and Tanzania. (NCI)</nciodm:CDISCDefinition>
          <nciodm:PreferredTerm>Kenya</nciodm:PreferredTerm>
        </EnumeratedItem>
        <EnumeratedItem CodedValue="KGZ" nciodm:ExtCodeID="C16771">
          <nciodm:CDISCSynonym>KYRGYZSTAN</nciodm:CDISCSynonym>
          <nciodm:CDISCDefinition>A country in Central Asia, west of China. (NCI)</nciodm:CDISCDefinition>
          <nciodm:PreferredTerm>Kyrgyzstan</nciodm:PreferredTerm>
        </EnumeratedItem>
        <EnumeratedItem CodedValue="KHM" nciodm:ExtCodeID="C16378">
          <nciodm:CDISCSynonym>CAMBODIA</nciodm:CDISCSynonym>
          <nciodm:CDISCDefinition>A country in Southeastern Asia, bordering the Gulf of Thailand, between Thailand, Vietnam, and Laos. (NCI)</nciodm:CDISCDefinition>
          <nciodm:PreferredTerm>Cambodia</nciodm:PreferredTerm>
        </EnumeratedItem>
        <EnumeratedItem CodedValue="KIR" nciodm:ExtCodeID="C16639">
          <nciodm:CDISCSynonym>KIRIBATI</nciodm:CDISCSynonym>
          <nciodm:CDISCDefinition>A group of 33 coral atolls in the Pacific Ocean, straddling the equator; the capital Tarawa is about one-half of the way from Hawaii to Australia. (NCI)</nciodm:CDISCDefinition>
          <nciodm:PreferredTerm>Kiribati</nciodm:PreferredTerm>
        </EnumeratedItem>
        <EnumeratedItem CodedValue="KNA" nciodm:ExtCodeID="C17885">
          <nciodm:CDISCSynonym>SAINT KITTS AND NEVIS</nciodm:CDISCSynonym>
          <nciodm:CDISCDefinition>Islands in the Caribbean Sea, about one-third of the way from Puerto Rico to Trinidad and Tobago. (NCI)</nciodm:CDISCDefinition>
          <nciodm:PreferredTerm>Saint Kitts and Nevis</nciodm:PreferredTerm>
        </EnumeratedItem>
        <EnumeratedItem CodedValue="KOR" nciodm:ExtCodeID="C16774">
          <nciodm:CDISCSynonym>SOUTH KOREA</nciodm:CDISCSynonym>
          <nciodm:CDISCDefinition>A country in Eastern Asia, occupying the southern half of the Korean Peninsula, bordering the Sea of Japan and the Yellow Sea. (NCI)</nciodm:CDISCDefinition>
          <nciodm:PreferredTerm>Korea, Republic of</nciodm:PreferredTerm>
        </EnumeratedItem>
        <EnumeratedItem CodedValue="KWT" nciodm:ExtCodeID="C16775">
          <nciodm:CDISCSynonym>KUWAIT</nciodm:CDISCSynonym>
          <nciodm:CDISCDefinition>A country in the Middle East, bordering the Persian Gulf, between Iraq and Saudi Arabia. (NCI)</nciodm:CDISCDefinition>
          <nciodm:PreferredTerm>Kuwait</nciodm:PreferredTerm>
        </EnumeratedItem>
        <EnumeratedItem CodedValue="LAO" nciodm:ExtCodeID="C16780">
          <nciodm:CDISCSynonym>LAO PEOPLE'S DEMOCRATIC REPUBLIC</nciodm:CDISCSynonym>
          <nciodm:CDISCDefinition>A country in Southeastern Asia, northeast of Thailand, west of Vietnam. (NCI)</nciodm:CDISCDefinition>
          <nciodm:PreferredTerm>Lao People's Democratic Republic</nciodm:PreferredTerm>
        </EnumeratedItem>
        <EnumeratedItem CodedValue="LBN" nciodm:ExtCodeID="C16784">
          <nciodm:CDISCSynonym>LEBANON</nciodm:CDISCSynonym>
          <nciodm:CDISCDefinition>A country in the Middle East, bordering the Mediterranean Sea, between Israel and Syria. (NCI)</nciodm:CDISCDefinition>
          <nciodm:PreferredTerm>Lebanon</nciodm:PreferredTerm>
        </EnumeratedItem>
        <EnumeratedItem CodedValue="LBR" nciodm:ExtCodeID="C16791">
          <nciodm:CDISCSynonym>LIBERIA</nciodm:CDISCSynonym>
          <nciodm:CDISCDefinition>A country in Western Africa, bordering the North Atlantic Ocean, between Cote d'Ivoire and Sierra Leone. (NCI)</nciodm:CDISCDefinition>
          <nciodm:PreferredTerm>Liberia</nciodm:PreferredTerm>
        </EnumeratedItem>
        <EnumeratedItem CodedValue="LBY" nciodm:ExtCodeID="C16793">
          <nciodm:CDISCSynonym>LIBYAN ARAB JAMAHIRIYA</nciodm:CDISCSynonym>
          <nciodm:CDISCDefinition>A country in Northern Africa, bordering the Mediterranean Sea, between Egypt and Tunisia. (NCI)</nciodm:CDISCDefinition>
          <nciodm:PreferredTerm>Libyan Arab Jamahiriya</nciodm:PreferredTerm>
        </EnumeratedItem>
        <EnumeratedItem CodedValue="LCA" nciodm:ExtCodeID="C17113">
          <nciodm:CDISCSynonym>SAINT LUCIA</nciodm:CDISCSynonym>
          <nciodm:CDISCDefinition>A country in the Caribbean, occupying an island between the Caribbean Sea and North Atlantic Ocean, north of Trinidad and Tobago. (NCI)</nciodm:CDISCDefinition>
          <nciodm:PreferredTerm>Saint Lucia</nciodm:PreferredTerm>
        </EnumeratedItem>
        <EnumeratedItem CodedValue="LIE" nciodm:ExtCodeID="C16794">
          <nciodm:CDISCSynonym>LIECHTENSTEIN</nciodm:CDISCSynonym>
          <nciodm:CDISCDefinition>A country in Central Europe, between Austria and Switzerland. (NCI)</nciodm:CDISCDefinition>
          <nciodm:PreferredTerm>Liechtenstein</nciodm:PreferredTerm>
        </EnumeratedItem>
        <EnumeratedItem CodedValue="LKA" nciodm:ExtCodeID="C17163">
          <nciodm:CDISCSynonym>SRI LANKA</nciodm:CDISCSynonym>
          <nciodm:CDISCDefinition>A country in Southern Asia, occupying an island in the Indian Ocean, south of India. (NCI)</nciodm:CDISCDefinition>
          <nciodm:PreferredTerm>Sri Lanka</nciodm:PreferredTerm>
        </EnumeratedItem>
        <EnumeratedItem CodedValue="LSO" nciodm:ExtCodeID="C16787">
          <nciodm:CDISCSynonym>LESOTHO</nciodm:CDISCSynonym>
          <nciodm:CDISCDefinition>A country in Southern Africa, an enclave of South Africa. (NCI)</nciodm:CDISCDefinition>
          <nciodm:PreferredTerm>Lesotho</nciodm:PreferredTerm>
        </EnumeratedItem>
        <EnumeratedItem CodedValue="LTU" nciodm:ExtCodeID="C16799">
          <nciodm:CDISCSynonym>LITHUANIA</nciodm:CDISCSynonym>
          <nciodm:CDISCDefinition>A country in Eastern Europe, bordering the Baltic Sea, between Latvia and Russia. (NCI)</nciodm:CDISCDefinition>
          <nciodm:PreferredTerm>Lithuania</nciodm:PreferredTerm>
        </EnumeratedItem>
        <EnumeratedItem CodedValue="LUX" nciodm:ExtCodeID="C16803">
          <nciodm:CDISCSynonym>LUXEMBOURG</nciodm:CDISCSynonym>
          <nciodm:CDISCDefinition>A country in Western Europe, between France, Belgium, and Germany. (NCI)</nciodm:CDISCDefinition>
          <nciodm:PreferredTerm>Luxembourg</nciodm:PreferredTerm>
        </EnumeratedItem>
        <EnumeratedItem CodedValue="LVA" nciodm:ExtCodeID="C16783">
          <nciodm:CDISCSynonym>LATVIA</nciodm:CDISCSynonym>
          <nciodm:CDISCDefinition>A country in Eastern Europe, bordering the Baltic Sea, between Estonia and Lithuania. (NCI)</nciodm:CDISCDefinition>
          <nciodm:PreferredTerm>Latvia</nciodm:PreferredTerm>
        </EnumeratedItem>
        <EnumeratedItem CodedValue="MAC" nciodm:ExtCodeID="C16807">
          <nciodm:CDISCSynonym>MACAO</nciodm:CDISCSynonym>
          <nciodm:CDISCDefinition>A country in Eastern Asia, bordering the South China Sea and China. (NCI)</nciodm:CDISCDefinition>
          <nciodm:PreferredTerm>Macao</nciodm:PreferredTerm>
        </EnumeratedItem>
        <EnumeratedItem CodedValue="MAF" nciodm:ExtCodeID="C83610">
          <nciodm:CDISCSynonym>SAINT MARTIN, FRENCH</nciodm:CDISCSynonym>
          <nciodm:CDISCDefinition>An island in the Caribbean sea, between Anguilla and Saint Barthelemy. (NCI)</nciodm:CDISCDefinition>
          <nciodm:PreferredTerm>Saint Martin, French</nciodm:PreferredTerm>
        </EnumeratedItem>
        <EnumeratedItem CodedValue="MAR" nciodm:ExtCodeID="C16878">
          <nciodm:CDISCSynonym>MOROCCO</nciodm:CDISCSynonym>
          <nciodm:CDISCDefinition>A country in Northern Africa, bordering the North Atlantic Ocean and the Mediterranean Sea, between Algeria and Western Sahara. (NCI)</nciodm:CDISCDefinition>
          <nciodm:PreferredTerm>Morocco</nciodm:PreferredTerm>
        </EnumeratedItem>
        <EnumeratedItem CodedValue="MCO" nciodm:ExtCodeID="C16874">
          <nciodm:CDISCSynonym>MONACO</nciodm:CDISCSynonym>
          <nciodm:CDISCDefinition>A country in Western Europe, bordering the Mediterranean Sea on the southern coast of France, near the border with Italy. (NCI)</nciodm:CDISCDefinition>
          <nciodm:PreferredTerm>Monaco</nciodm:PreferredTerm>
        </EnumeratedItem>
        <EnumeratedItem CodedValue="MDA" nciodm:ExtCodeID="C16871">
          <nciodm:CDISCSynonym>MOLDOVA, REPUBLIC OF</nciodm:CDISCSynonym>
          <nciodm:CDISCDefinition>A country in Eastern Europe, northeast of Romania. (NCI)</nciodm:CDISCDefinition>
          <nciodm:PreferredTerm>Moldova, Republic of</nciodm:PreferredTerm>
        </EnumeratedItem>
        <EnumeratedItem CodedValue="MDG" nciodm:ExtCodeID="C16808">
          <nciodm:CDISCSynonym>MADAGASCAR</nciodm:CDISCSynonym>
          <nciodm:CDISCDefinition>A country in Southern Africa, occupying an island in the Indian Ocean, east of Mozambique. (NCI)</nciodm:CDISCDefinition>
          <nciodm:PreferredTerm>Madagascar</nciodm:PreferredTerm>
        </EnumeratedItem>
        <EnumeratedItem CodedValue="MDV" nciodm:ExtCodeID="C16815">
          <nciodm:CDISCSynonym>MALDIVES</nciodm:CDISCSynonym>
          <nciodm:CDISCDefinition>A country in Southern Asia, occupying a group of atolls in the Indian Ocean, south-southwest of India. (NCI)</nciodm:CDISCDefinition>
          <nciodm:PreferredTerm>Maldives</nciodm:PreferredTerm>
        </EnumeratedItem>
        <EnumeratedItem CodedValue="MEX" nciodm:ExtCodeID="C16850">
          <nciodm:CDISCSynonym>MEXICO</nciodm:CDISCSynonym>
          <nciodm:CDISCDefinition>A country in Central America, bordering the Caribbean Sea and the Gulf of Mexico, between Belize and the US and bordering the North Pacific Ocean, between Guatemala and the US. (NCI)</nciodm:CDISCDefinition>
          <nciodm:PreferredTerm>Mexico</nciodm:PreferredTerm>
        </EnumeratedItem>
        <EnumeratedItem CodedValue="MHL" nciodm:ExtCodeID="C16822">
          <nciodm:CDISCSynonym>MARSHALL ISLANDS</nciodm:CDISCSynonym>
          <nciodm:CDISCDefinition>A group of atolls and reefs in the North Pacific Ocean, about one-half of the way from Hawaii to Australia. (NCI)</nciodm:CDISCDefinition>
          <nciodm:PreferredTerm>Marshall Islands</nciodm:PreferredTerm>
        </EnumeratedItem>
        <EnumeratedItem CodedValue="MKD" nciodm:ExtCodeID="C17654">
          <nciodm:CDISCSynonym>REPUBLIC OF MACEDONIA</nciodm:CDISCSynonym>
          <nciodm:CDISCDefinition>A country in Southeastern Europe, north of Greece. (NCI)</nciodm:CDISCDefinition>
          <nciodm:PreferredTerm>Macedonia, the Former Yugoslav Republic of</nciodm:PreferredTerm>
        </EnumeratedItem>
        <EnumeratedItem CodedValue="MLI" nciodm:ExtCodeID="C16816">
          <nciodm:CDISCSynonym>MALI</nciodm:CDISCSynonym>
          <nciodm:CDISCDefinition>A country in Western Africa, southwest of Algeria. (NCI)</nciodm:CDISCDefinition>
          <nciodm:PreferredTerm>Mali</nciodm:PreferredTerm>
        </EnumeratedItem>
        <EnumeratedItem CodedValue="MLT" nciodm:ExtCodeID="C16817">
          <nciodm:CDISCSynonym>MALTA</nciodm:CDISCSynonym>
          <nciodm:CDISCDefinition>A country in Southern Europe, occupying islands in the Mediterranean Sea, south of Sicily (Italy). (NCI)</nciodm:CDISCDefinition>
          <nciodm:PreferredTerm>Malta</nciodm:PreferredTerm>
        </EnumeratedItem>
        <EnumeratedItem CodedValue="MMR" nciodm:ExtCodeID="C16370">
          <nciodm:CDISCSynonym>MYANMAR</nciodm:CDISCSynonym>
          <nciodm:CDISCDefinition>A country in Southeastern Asia, bordering the Andaman Sea and the Bay of Bengal, between Bangladesh and Thailand. (NCI)</nciodm:CDISCDefinition>
          <nciodm:PreferredTerm>Myanmar</nciodm:PreferredTerm>
        </EnumeratedItem>
        <EnumeratedItem CodedValue="MNE" nciodm:ExtCodeID="C64378">
          <nciodm:CDISCSynonym>MONTENEGRO</nciodm:CDISCSynonym>
          <nciodm:CDISCDefinition>A republic in Southeastern Europe, bordering the Adriatic Sea, between Albania and Bosnia and Herzegovina. Formerly part of Serbia and Montenegro (Federation Republic of Yugoslavia). (NCI)</nciodm:CDISCDefinition>
          <nciodm:PreferredTerm>Montenegro</nciodm:PreferredTerm>
        </EnumeratedItem>
        <EnumeratedItem CodedValue="MNG" nciodm:ExtCodeID="C16875">
          <nciodm:CDISCSynonym>MONGOLIA</nciodm:CDISCSynonym>
          <nciodm:CDISCDefinition>A country in Northern Asia, between China and Russia. (NCI)</nciodm:CDISCDefinition>
          <nciodm:PreferredTerm>Mongolia</nciodm:PreferredTerm>
        </EnumeratedItem>
        <EnumeratedItem CodedValue="MNP" nciodm:ExtCodeID="C17882">
          <nciodm:CDISCSynonym>NORTHERN MARIANA ISLANDS</nciodm:CDISCSynonym>
          <nciodm:CDISCDefinition>A country in the Pacific, comprising islands in the North Pacific Ocean, about three-quarters of the way from Hawaii to the Philippines. (NCI)</nciodm:CDISCDefinition>
          <nciodm:PreferredTerm>Northern Mariana Islands</nciodm:PreferredTerm>
        </EnumeratedItem>
        <EnumeratedItem CodedValue="MOZ" nciodm:ExtCodeID="C16882">
          <nciodm:CDISCSynonym>MOZAMBIQUE</nciodm:CDISCSynonym>
          <nciodm:CDISCDefinition>A country in Southern Africa, bordering the Mozambique Channel, between South Africa and Tanzania. (NCI)</nciodm:CDISCDefinition>
          <nciodm:PreferredTerm>Mozambique</nciodm:PreferredTerm>
        </EnumeratedItem>
        <EnumeratedItem CodedValue="MRT" nciodm:ExtCodeID="C16826">
          <nciodm:CDISCSynonym>MAURITANIA</nciodm:CDISCSynonym>
          <nciodm:CDISCDefinition>A country in Northern Africa, bordering the North Atlantic Ocean, between Senegal and Western Sahara. (NCI)</nciodm:CDISCDefinition>
          <nciodm:PreferredTerm>Mauritania</nciodm:PreferredTerm>
        </EnumeratedItem>
        <EnumeratedItem CodedValue="MSR" nciodm:ExtCodeID="C16876">
          <nciodm:CDISCSynonym>MONTSERRAT</nciodm:CDISCSynonym>
          <nciodm:CDISCDefinition>A country in the Caribbean, occupying an island in the Caribbean Sea, southeast of Puerto Rico. (NCI)</nciodm:CDISCDefinition>
          <nciodm:PreferredTerm>Montserrat</nciodm:PreferredTerm>
        </EnumeratedItem>
        <EnumeratedItem CodedValue="MTQ" nciodm:ExtCodeID="C16823">
          <nciodm:CDISCSynonym>MARTINIQUE</nciodm:CDISCSynonym>
          <nciodm:CDISCDefinition>An island in the Caribbean Sea, north of Trinidad and Tobago. (NCI)</nciodm:CDISCDefinition>
          <nciodm:PreferredTerm>Martinique</nciodm:PreferredTerm>
        </EnumeratedItem>
        <EnumeratedItem CodedValue="MUS" nciodm:ExtCodeID="C16827">
          <nciodm:CDISCSynonym>MAURITIUS</nciodm:CDISCSynonym>
          <nciodm:CDISCDefinition>A country in Southern Africa, occupying an island in the Indian Ocean, east of Madagascar. (NCI)</nciodm:CDISCDefinition>
          <nciodm:PreferredTerm>Mauritius</nciodm:PreferredTerm>
        </EnumeratedItem>
        <EnumeratedItem CodedValue="MWI" nciodm:ExtCodeID="C16813">
          <nciodm:CDISCSynonym>MALAWI</nciodm:CDISCSynonym>
          <nciodm:CDISCDefinition>A country in Southern Africa, east of Zambia. (NCI)</nciodm:CDISCDefinition>
          <nciodm:PreferredTerm>Malawi</nciodm:PreferredTerm>
        </EnumeratedItem>
        <EnumeratedItem CodedValue="MYS" nciodm:ExtCodeID="C16814">
          <nciodm:CDISCSynonym>MALAYSIA</nciodm:CDISCSynonym>
          <nciodm:CDISCDefinition>A country in Southeastern Asia, occupying a peninsula and the northern one-third of the island of Borneo, bordering Indonesia and the South China Sea, south of Vietnam. (NCI)</nciodm:CDISCDefinition>
          <nciodm:PreferredTerm>Malaysia</nciodm:PreferredTerm>
        </EnumeratedItem>
        <EnumeratedItem CodedValue="MYT" nciodm:ExtCodeID="C16828">
          <nciodm:CDISCSynonym>MAYOTTE</nciodm:CDISCSynonym>
          <nciodm:CDISCDefinition>A country in Southern Africa, occupying an island in the Mozambique Channel, about one-half of the way from northern Madagascar to northern Mozambique. (NCI)</nciodm:CDISCDefinition>
          <nciodm:PreferredTerm>Mayotte</nciodm:PreferredTerm>
        </EnumeratedItem>
        <EnumeratedItem CodedValue="NAM" nciodm:ExtCodeID="C16891">
          <nciodm:CDISCSynonym>NAMIBIA</nciodm:CDISCSynonym>
          <nciodm:CDISCDefinition>A country in Southern Africa, bordering the South Atlantic Ocean, between Angola and South Africa. (NCI)</nciodm:CDISCDefinition>
          <nciodm:PreferredTerm>Namibia</nciodm:PreferredTerm>
        </EnumeratedItem>
        <EnumeratedItem CodedValue="NCL" nciodm:ExtCodeID="C16913">
          <nciodm:CDISCSynonym>NEW CALEDONIA</nciodm:CDISCSynonym>
          <nciodm:CDISCDefinition>A country in the Pacific, comprised of islands in the South Pacific Ocean, east of Australia. (NCI)</nciodm:CDISCDefinition>
          <nciodm:PreferredTerm>New Caledonia</nciodm:PreferredTerm>
        </EnumeratedItem>
        <EnumeratedItem CodedValue="NER" nciodm:ExtCodeID="C16916">
          <nciodm:CDISCSynonym>NIGER</nciodm:CDISCSynonym>
          <nciodm:CDISCDefinition>A country in Western Africa, southeast of Algeria. (NCI)</nciodm:CDISCDefinition>
          <nciodm:PreferredTerm>Niger</nciodm:PreferredTerm>
        </EnumeratedItem>
        <EnumeratedItem CodedValue="NFK" nciodm:ExtCodeID="C16919">
          <nciodm:CDISCSynonym>NORFOLK ISLAND</nciodm:CDISCSynonym>
          <nciodm:CDISCDefinition>A country in the Pacific, occupying an island in the South Pacific Ocean, east of Australia. (NCI)</nciodm:CDISCDefinition>
          <nciodm:PreferredTerm>Norfolk Island</nciodm:PreferredTerm>
        </EnumeratedItem>
        <EnumeratedItem CodedValue="NGA" nciodm:ExtCodeID="C16917">
          <nciodm:CDISCSynonym>NIGERIA</nciodm:CDISCSynonym>
          <nciodm:CDISCDefinition>A country in Western Africa, bordering the Gulf of Guinea, between Benin and Cameroon. (NCI)</nciodm:CDISCDefinition>
          <nciodm:PreferredTerm>Nigeria</nciodm:PreferredTerm>
        </EnumeratedItem>
        <EnumeratedItem CodedValue="NIC" nciodm:ExtCodeID="C16915">
          <nciodm:CDISCSynonym>NICARAGUA</nciodm:CDISCSynonym>
          <nciodm:CDISCDefinition>A country in Central America, bordering both the Caribbean Sea and the North Pacific Ocean, between Costa Rica and Honduras. (NCI)</nciodm:CDISCDefinition>
          <nciodm:PreferredTerm>Nicaragua</nciodm:PreferredTerm>
        </EnumeratedItem>
        <EnumeratedItem CodedValue="NIU" nciodm:ExtCodeID="C16918">
          <nciodm:CDISCSynonym>NIUE</nciodm:CDISCSynonym>
          <nciodm:CDISCDefinition>A country in the Pacific, occupying an island in the South Pacific Ocean, east of Tonga. (NCI)</nciodm:CDISCDefinition>
          <nciodm:PreferredTerm>Niue</nciodm:PreferredTerm>
        </EnumeratedItem>
        <EnumeratedItem CodedValue="NLD" nciodm:ExtCodeID="C16903">
          <nciodm:CDISCSynonym>NETHERLANDS</nciodm:CDISCSynonym>
          <nciodm:CDISCDefinition>A country in Western Europe, bordering the North Sea, between Belgium and Germany. (NCI)</nciodm:CDISCDefinition>
          <nciodm:PreferredTerm>Netherlands</nciodm:PreferredTerm>
        </EnumeratedItem>
        <EnumeratedItem CodedValue="NOR" nciodm:ExtCodeID="C16920">
          <nciodm:CDISCSynonym>NORWAY</nciodm:CDISCSynonym>
          <nciodm:CDISCDefinition>A country in Northern Europe, bordering the North Sea and the North Atlantic Ocean, west of Sweden. (NCI)</nciodm:CDISCDefinition>
          <nciodm:PreferredTerm>Norway</nciodm:PreferredTerm>
        </EnumeratedItem>
        <EnumeratedItem CodedValue="NPL" nciodm:ExtCodeID="C16901">
          <nciodm:CDISCSynonym>NEPAL</nciodm:CDISCSynonym>
          <nciodm:CDISCDefinition>A country in Southern Asia, between China and India. (NCI)</nciodm:CDISCDefinition>
          <nciodm:PreferredTerm>Nepal</nciodm:PreferredTerm>
        </EnumeratedItem>
        <EnumeratedItem CodedValue="NRU" nciodm:ExtCodeID="C16896">
          <nciodm:CDISCSynonym>NAURU</nciodm:CDISCSynonym>
          <nciodm:CDISCDefinition>A country in Oceania, occupying an island in the South Pacific Ocean, south of the Marshall Islands. (NCI)</nciodm:CDISCDefinition>
          <nciodm:PreferredTerm>Nauru</nciodm:PreferredTerm>
        </EnumeratedItem>
        <EnumeratedItem CodedValue="NZL" nciodm:ExtCodeID="C16914">
          <nciodm:CDISCSynonym>NEW ZEALAND</nciodm:CDISCSynonym>
          <nciodm:CDISCDefinition>A country in the Pacific, comprised of islands in the South Pacific Ocean, southeast of Australia. (NCI)</nciodm:CDISCDefinition>
          <nciodm:PreferredTerm>New Zealand</nciodm:PreferredTerm>
        </EnumeratedItem>
        <EnumeratedItem CodedValue="OMN" nciodm:ExtCodeID="C16933">
          <nciodm:CDISCSynonym>OMAN</nciodm:CDISCSynonym>
          <nciodm:CDISCDefinition>A country in the Middle East, bordering the Arabian Sea, Gulf of Oman, and Persian Gulf, between Yemen and the United Arab Emirates. (NCI)</nciodm:CDISCDefinition>
          <nciodm:PreferredTerm>Oman</nciodm:PreferredTerm>
        </EnumeratedItem>
        <EnumeratedItem CodedValue="PAK" nciodm:ExtCodeID="C16949">
          <nciodm:CDISCSynonym>PAKISTAN</nciodm:CDISCSynonym>
          <nciodm:CDISCDefinition>A country in Southern Asia, bordering the Arabian Sea, between India on the east and Iran and Afghanistan on the west and China in the north. (NCI)</nciodm:CDISCDefinition>
          <nciodm:PreferredTerm>Pakistan</nciodm:PreferredTerm>
        </EnumeratedItem>
        <EnumeratedItem CodedValue="PAN" nciodm:ExtCodeID="C16951">
          <nciodm:CDISCSynonym>PANAMA</nciodm:CDISCSynonym>
          <nciodm:CDISCDefinition>A country in Central America, bordering both the Caribbean Sea and the North Pacific Ocean, between Colombia and Costa Rica. (NCI)</nciodm:CDISCDefinition>
          <nciodm:PreferredTerm>Panama</nciodm:PreferredTerm>
        </EnumeratedItem>
        <EnumeratedItem CodedValue="PCN" nciodm:ExtCodeID="C16993">
          <nciodm:CDISCSynonym>PITCAIRN</nciodm:CDISCSynonym>
          <nciodm:CDISCDefinition>A country in the Pacific, comprised of islands in the South Pacific Ocean, about midway between Peru and New Zealand. (NCI)</nciodm:CDISCDefinition>
          <nciodm:PreferredTerm>Pitcairn</nciodm:PreferredTerm>
        </EnumeratedItem>
        <EnumeratedItem CodedValue="PER" nciodm:ExtCodeID="C16972">
          <nciodm:CDISCSynonym>PERU</nciodm:CDISCSynonym>
          <nciodm:CDISCDefinition>A country in Western South America, bordering the South Pacific Ocean, between Chile and Ecuador. (NCI)</nciodm:CDISCDefinition>
          <nciodm:PreferredTerm>Peru</nciodm:PreferredTerm>
        </EnumeratedItem>
        <EnumeratedItem CodedValue="PHL" nciodm:ExtCodeID="C16978">
          <nciodm:CDISCSynonym>PHILIPPINES</nciodm:CDISCSynonym>
          <nciodm:CDISCDefinition>A country in Southeastern Asia, comprised of an archipelago between the Philippine Sea and the South China Sea, east of Vietnam. (NCI)</nciodm:CDISCDefinition>
          <nciodm:PreferredTerm>Philippines</nciodm:PreferredTerm>
        </EnumeratedItem>
        <EnumeratedItem CodedValue="PLW" nciodm:ExtCodeID="C17733">
          <nciodm:CDISCSynonym>PALAU</nciodm:CDISCSynonym>
          <nciodm:CDISCDefinition>A country in the Pacific, comprising a group of islands in the North Pacific Ocean, southeast of the Philippines. (NCI)</nciodm:CDISCDefinition>
          <nciodm:PreferredTerm>Palau</nciodm:PreferredTerm>
        </EnumeratedItem>
        <EnumeratedItem CodedValue="PNG" nciodm:ExtCodeID="C16952">
          <nciodm:CDISCSynonym>PAPUA NEW GUINEA</nciodm:CDISCSynonym>
          <nciodm:CDISCDefinition>A country in Southeastern Asia, comprising a group of islands and including the eastern half of the island of New Guinea, between the Coral Sea and the South Pacific Ocean, east of Indonesia. (NCI)</nciodm:CDISCDefinition>
          <nciodm:PreferredTerm>Papua New Guinea</nciodm:PreferredTerm>
        </EnumeratedItem>
        <EnumeratedItem CodedValue="POL" nciodm:ExtCodeID="C17002">
          <nciodm:CDISCSynonym>POLAND</nciodm:CDISCSynonym>
          <nciodm:CDISCDefinition>A country in Central Europe, east of Germany. (NCI)</nciodm:CDISCDefinition>
          <nciodm:PreferredTerm>Poland</nciodm:PreferredTerm>
        </EnumeratedItem>
        <EnumeratedItem CodedValue="PRI" nciodm:ExtCodeID="C17043">
          <nciodm:CDISCSynonym>PUERTO RICO</nciodm:CDISCSynonym>
          <nciodm:CDISCDefinition>An island between the Caribbean Sea and the North Atlantic Ocean, east of the Dominican Republic. (NCI)</nciodm:CDISCDefinition>
          <nciodm:PreferredTerm>Puerto Rico</nciodm:PreferredTerm>
        </EnumeratedItem>
        <EnumeratedItem CodedValue="PRK" nciodm:ExtCodeID="C16773">
          <nciodm:CDISCSynonym>NORTH KOREA</nciodm:CDISCSynonym>
          <nciodm:CDISCDefinition>A country in Eastern Asia, occupying the northern half of the Korean Peninsula, bordering the Korea Bay and the Sea of Japan, between China and South Korea. (NCI)</nciodm:CDISCDefinition>
          <nciodm:PreferredTerm>Korea, Democratic People's Republic of</nciodm:PreferredTerm>
        </EnumeratedItem>
        <EnumeratedItem CodedValue="PRT" nciodm:ExtCodeID="C17006">
          <nciodm:CDISCSynonym>PORTUGAL</nciodm:CDISCSynonym>
          <nciodm:CDISCDefinition>A country in Southwestern Europe, bordering the North Atlantic Ocean, west of Spain. (NCI)</nciodm:CDISCDefinition>
          <nciodm:PreferredTerm>Portugal</nciodm:PreferredTerm>
        </EnumeratedItem>
        <EnumeratedItem CodedValue="PRY" nciodm:ExtCodeID="C16953">
          <nciodm:CDISCSynonym>PARAGUAY</nciodm:CDISCSynonym>
          <nciodm:CDISCDefinition>A country in Central South America, northeast of Argentina. (NCI)</nciodm:CDISCDefinition>
          <nciodm:PreferredTerm>Paraguay</nciodm:PreferredTerm>
        </EnumeratedItem>
        <EnumeratedItem CodedValue="PSE" nciodm:ExtCodeID="C20110">
          <nciodm:CDISCSynonym>PALESTINIAN TERRITORY, OCCUPIED</nciodm:CDISCSynonym>
          <nciodm:CDISCDefinition>A collective name for the West Bank and the Gaza Strip, two territories in Palestine. (NCI)</nciodm:CDISCDefinition>
          <nciodm:PreferredTerm>Palestinian Territory, Occupied</nciodm:PreferredTerm>
        </EnumeratedItem>
        <EnumeratedItem CodedValue="PYF" nciodm:ExtCodeID="C16594">
          <nciodm:CDISCSynonym>FRENCH POLYNESIA</nciodm:CDISCSynonym>
          <nciodm:CDISCDefinition>An archipelago in the South Pacific Ocean, about one-half of the way from South America to Australia. (NCI)</nciodm:CDISCDefinition>
          <nciodm:PreferredTerm>French Polynesia</nciodm:PreferredTerm>
        </EnumeratedItem>
        <EnumeratedItem CodedValue="QAT" nciodm:ExtCodeID="C17045">
          <nciodm:CDISCSynonym>QATAR</nciodm:CDISCSynonym>
          <nciodm:CDISCDefinition>A country in the Middle East, occupying a peninsula bordering the Persian Gulf and Saudi Arabia. (NCI)</nciodm:CDISCDefinition>
          <nciodm:PreferredTerm>Qatar</nciodm:PreferredTerm>
        </EnumeratedItem>
        <EnumeratedItem CodedValue="REU" nciodm:ExtCodeID="C17095">
          <nciodm:CDISCSynonym>REUNION</nciodm:CDISCSynonym>
          <nciodm:CDISCDefinition>A country in Southern Africa, occupying an island in the Indian Ocean, east of Madagascar. (NCI)</nciodm:CDISCDefinition>
          <nciodm:PreferredTerm>Reunion</nciodm:PreferredTerm>
        </EnumeratedItem>
        <EnumeratedItem CodedValue="ROU" nciodm:ExtCodeID="C17108">
          <nciodm:CDISCSynonym>ROMANIA</nciodm:CDISCSynonym>
          <nciodm:CDISCDefinition>A country in Southeastern Europe, bordering the Black Sea, between Bulgaria and Ukraine. (NCI)</nciodm:CDISCDefinition>
          <nciodm:PreferredTerm>Romania</nciodm:PreferredTerm>
        </EnumeratedItem>
        <EnumeratedItem CodedValue="RUS" nciodm:ExtCodeID="C17111">
          <nciodm:CDISCSynonym>RUSSIAN FEDERATION</nciodm:CDISCSynonym>
          <nciodm:CDISCDefinition>A country in Northern Asia (that part west of the Urals is sometimes included with Europe), bordering the Arctic Ocean, between Europe and the North Pacific Ocean. (NCI)</nciodm:CDISCDefinition>
          <nciodm:PreferredTerm>Russian Federation</nciodm:PreferredTerm>
        </EnumeratedItem>
        <EnumeratedItem CodedValue="RWA" nciodm:ExtCodeID="C17112">
          <nciodm:CDISCSynonym>RWANDA</nciodm:CDISCSynonym>
          <nciodm:CDISCDefinition>A country in Central Africa, east of Democratic Republic of the Congo. (NCI)</nciodm:CDISCDefinition>
          <nciodm:PreferredTerm>Rwanda</nciodm:PreferredTerm>
        </EnumeratedItem>
        <EnumeratedItem CodedValue="SAU" nciodm:ExtCodeID="C17117">
          <nciodm:CDISCSynonym>SAUDI ARABIA</nciodm:CDISCSynonym>
          <nciodm:CDISCDefinition>A country in the Middle East, bordering the Persian Gulf and the Red Sea, north of Yemen. (NCI)</nciodm:CDISCDefinition>
          <nciodm:PreferredTerm>Saudi Arabia</nciodm:PreferredTerm>
        </EnumeratedItem>
        <EnumeratedItem CodedValue="SRB" nciodm:ExtCodeID="C64377">
          <nciodm:CDISCSynonym>SERBIA</nciodm:CDISCSynonym>
          <nciodm:CDISCDefinition>A republic in Southeastern Europe, bordering the Adriatic Sea, between Albania and Bosnia and Herzegovina. Formerly part of Serbia and Montenegro (Federation Republic of Yugoslavia). (NCI)</nciodm:CDISCDefinition>
          <nciodm:PreferredTerm>Serbia</nciodm:PreferredTerm>
        </EnumeratedItem>
        <EnumeratedItem CodedValue="SDN" nciodm:ExtCodeID="C17170">
          <nciodm:CDISCSynonym>SUDAN</nciodm:CDISCSynonym>
          <nciodm:CDISCDefinition>A country in Northern Africa, bordering the Red Sea, between Egypt and Eritrea. (NCI)</nciodm:CDISCDefinition>
          <nciodm:PreferredTerm>Sudan</nciodm:PreferredTerm>
        </EnumeratedItem>
        <EnumeratedItem CodedValue="SEN" nciodm:ExtCodeID="C17121">
          <nciodm:CDISCSynonym>SENEGAL</nciodm:CDISCSynonym>
          <nciodm:CDISCDefinition>A country in Western Africa, bordering the North Atlantic Ocean, between Guinea-Bissau and Mauritania. (NCI)</nciodm:CDISCDefinition>
          <nciodm:PreferredTerm>Senegal</nciodm:PreferredTerm>
        </EnumeratedItem>
        <EnumeratedItem CodedValue="SGP" nciodm:ExtCodeID="C17134">
          <nciodm:CDISCSynonym>SINGAPORE</nciodm:CDISCSynonym>
          <nciodm:CDISCDefinition>A country in Southeastern Asia, comprised of islands between Malaysia and Indonesia. (NCI)</nciodm:CDISCDefinition>
          <nciodm:PreferredTerm>Singapore</nciodm:PreferredTerm>
        </EnumeratedItem>
        <EnumeratedItem CodedValue="SGS" nciodm:ExtCodeID="C20111">
          <nciodm:CDISCSynonym>SOUTH GEORGIA AND THE SOUTH SANDWICH ISLANDS</nciodm:CDISCSynonym>
          <nciodm:CDISCDefinition>A group of islands in the South Atlantic Ocean, east of the tip of South America. (NCI)</nciodm:CDISCDefinition>
          <nciodm:PreferredTerm>South Georgia and the South Sandwich Islands</nciodm:PreferredTerm>
        </EnumeratedItem>
        <EnumeratedItem CodedValue="SHN" nciodm:ExtCodeID="C17164">
          <nciodm:CDISCSynonym>SAINT HELENA</nciodm:CDISCSynonym>
          <nciodm:CDISCDefinition>Islands in the South Atlantic Ocean, about midway between South America and Africa. (NCI)</nciodm:CDISCDefinition>
          <nciodm:PreferredTerm>Saint Helena</nciodm:PreferredTerm>
        </EnumeratedItem>
        <EnumeratedItem CodedValue="SJM" nciodm:ExtCodeID="C17178">
          <nciodm:CDISCSynonym>SVALBARD AND JAN MAYEN</nciodm:CDISCSynonym>
          <nciodm:CDISCDefinition>Islands between the Arctic Ocean, Barents Sea, Greenland Sea, and Norwegian Sea, northeast of Iceland and north of Norway. (NCI)</nciodm:CDISCDefinition>
          <nciodm:PreferredTerm>Svalbard and Jan Mayen</nciodm:PreferredTerm>
        </EnumeratedItem>
        <EnumeratedItem CodedValue="SLB" nciodm:ExtCodeID="C17148">
          <nciodm:CDISCSynonym>SOLOMON ISLANDS</nciodm:CDISCSynonym>
          <nciodm:CDISCDefinition>A group of islands in the South Pacific Ocean, east of Papua New Guinea. (NCI)</nciodm:CDISCDefinition>
          <nciodm:PreferredTerm>Solomon Islands</nciodm:PreferredTerm>
        </EnumeratedItem>
        <EnumeratedItem CodedValue="SLE" nciodm:ExtCodeID="C17130">
          <nciodm:CDISCSynonym>SIERRA LEONE</nciodm:CDISCSynonym>
          <nciodm:CDISCDefinition>A country in Western Africa, bordering the North Atlantic Ocean, between Guinea and Liberia. (NCI)</nciodm:CDISCDefinition>
          <nciodm:PreferredTerm>Sierra Leone</nciodm:PreferredTerm>
        </EnumeratedItem>
        <EnumeratedItem CodedValue="SLV" nciodm:ExtCodeID="C16532">
          <nciodm:CDISCSynonym>EL SALVADOR</nciodm:CDISCSynonym>
          <nciodm:CDISCDefinition>A country in Central America, bordering the North Pacific Ocean, between Guatemala and Honduras. (NCI)</nciodm:CDISCDefinition>
          <nciodm:PreferredTerm>El Salvador</nciodm:PreferredTerm>
        </EnumeratedItem>
        <EnumeratedItem CodedValue="SMR" nciodm:ExtCodeID="C17115">
          <nciodm:CDISCSynonym>SAN MARINO</nciodm:CDISCSynonym>
          <nciodm:CDISCDefinition>A country in Southern Europe, an enclave in central Italy. (NCI)</nciodm:CDISCDefinition>
          <nciodm:PreferredTerm>San Marino</nciodm:PreferredTerm>
        </EnumeratedItem>
        <EnumeratedItem CodedValue="SOM" nciodm:ExtCodeID="C17149">
          <nciodm:CDISCSynonym>SOMALIA</nciodm:CDISCSynonym>
          <nciodm:CDISCDefinition>A country in Eastern Africa, bordering the Gulf of Aden and the Indian Ocean, east of Ethiopia. (NCI)</nciodm:CDISCDefinition>
          <nciodm:PreferredTerm>Somalia</nciodm:PreferredTerm>
        </EnumeratedItem>
        <EnumeratedItem CodedValue="SPM" nciodm:ExtCodeID="C17165">
          <nciodm:CDISCSynonym>SAINT PIERRE AND MIQUELON</nciodm:CDISCSynonym>
          <nciodm:CDISCDefinition>A country in Northern North America, comprised of islands in the North Atlantic Ocean, south of Newfoundland (Canada). (NCI)</nciodm:CDISCDefinition>
          <nciodm:PreferredTerm>Saint Pierre and Miquelon</nciodm:PreferredTerm>
        </EnumeratedItem>
        <EnumeratedItem CodedValue="STP" nciodm:ExtCodeID="C17116">
          <nciodm:CDISCSynonym>SAO TOME AND PRINCIPE</nciodm:CDISCSynonym>
          <nciodm:CDISCDefinition>A country in Western Africa, comprised of islands in the Gulf of Guinea, straddling the Equator, west of Gabon. (NCI)</nciodm:CDISCDefinition>
          <nciodm:PreferredTerm>Sao Tome and Principe</nciodm:PreferredTerm>
        </EnumeratedItem>
        <EnumeratedItem CodedValue="SUR" nciodm:ExtCodeID="C17175">
          <nciodm:CDISCSynonym>SURINAME</nciodm:CDISCSynonym>
          <nciodm:CDISCDefinition>A country in Northern South America, bordering the North Atlantic Ocean, between French Guiana and Guyana. (NCI)</nciodm:CDISCDefinition>
          <nciodm:PreferredTerm>Suriname</nciodm:PreferredTerm>
        </EnumeratedItem>
        <EnumeratedItem CodedValue="SVK" nciodm:ExtCodeID="C17669">
          <nciodm:CDISCSynonym>SLOVAKIA</nciodm:CDISCSynonym>
          <nciodm:CDISCDefinition>A country in Central Europe, south of Poland. (NCI)</nciodm:CDISCDefinition>
          <nciodm:PreferredTerm>Slovakia</nciodm:PreferredTerm>
        </EnumeratedItem>
        <EnumeratedItem CodedValue="SVN" nciodm:ExtCodeID="C17138">
          <nciodm:CDISCSynonym>SLOVENIA</nciodm:CDISCSynonym>
          <nciodm:CDISCDefinition>A country in Central Europe, bordering the Adriatic Sea, between Austria and Croatia. (NCI)</nciodm:CDISCDefinition>
          <nciodm:PreferredTerm>Slovenia</nciodm:PreferredTerm>
        </EnumeratedItem>
        <EnumeratedItem CodedValue="SWE" nciodm:ExtCodeID="C17180">
          <nciodm:CDISCSynonym>SWEDEN</nciodm:CDISCSynonym>
          <nciodm:CDISCDefinition>A country in Northern Europe, bordering the Baltic Sea, Gulf of Bothnia, Kattegat, and Skagerrak, between Finland and Norway. (NCI)</nciodm:CDISCDefinition>
          <nciodm:PreferredTerm>Sweden</nciodm:PreferredTerm>
        </EnumeratedItem>
        <EnumeratedItem CodedValue="SWZ" nciodm:ExtCodeID="C17179">
          <nciodm:CDISCSynonym>SWAZILAND</nciodm:CDISCSynonym>
          <nciodm:CDISCDefinition>A country in Southern Africa, between Mozambique and South Africa. (NCI)</nciodm:CDISCDefinition>
          <nciodm:PreferredTerm>Swaziland</nciodm:PreferredTerm>
        </EnumeratedItem>
        <EnumeratedItem CodedValue="SYC" nciodm:ExtCodeID="C17129">
          <nciodm:CDISCSynonym>SEYCHELLES</nciodm:CDISCSynonym>
          <nciodm:CDISCDefinition>A country in Eastern Africa, comprised of a group of islands in the Indian Ocean, northeast of Madagascar. (NCI)</nciodm:CDISCDefinition>
          <nciodm:PreferredTerm>Seychelles</nciodm:PreferredTerm>
        </EnumeratedItem>
        <EnumeratedItem CodedValue="SYR" nciodm:ExtCodeID="C17182">
          <nciodm:CDISCSynonym>SYRIAN ARAB REPUBLIC</nciodm:CDISCSynonym>
          <nciodm:CDISCDefinition>A country in the Middle East, bordering the Mediterranean Sea, between Lebanon and Turkey. (NCI)</nciodm:CDISCDefinition>
          <nciodm:PreferredTerm>Syrian Arab Republic</nciodm:PreferredTerm>
        </EnumeratedItem>
        <EnumeratedItem CodedValue="TCA" nciodm:ExtCodeID="C17224">
          <nciodm:CDISCSynonym>TURKS AND CAICOS ISLANDS</nciodm:CDISCSynonym>
          <nciodm:CDISCDefinition>Two island groups in the North Atlantic Ocean, southeast of The Bahamas. (NCI)</nciodm:CDISCDefinition>
          <nciodm:PreferredTerm>Turks and Caicos Islands</nciodm:PreferredTerm>
        </EnumeratedItem>
        <EnumeratedItem CodedValue="TCD" nciodm:ExtCodeID="C16412">
          <nciodm:CDISCSynonym>CHAD</nciodm:CDISCSynonym>
          <nciodm:CDISCDefinition>A country in Central Africa, south of Libya. (NCI)</nciodm:CDISCDefinition>
          <nciodm:PreferredTerm>Chad</nciodm:PreferredTerm>
        </EnumeratedItem>
        <EnumeratedItem CodedValue="TGO" nciodm:ExtCodeID="C17202">
          <nciodm:CDISCSynonym>TOGO</nciodm:CDISCSynonym>
          <nciodm:CDISCDefinition>A country in Western Africa, bordering the Bight of Benin, between Benin and Ghana. (NCI)</nciodm:CDISCDefinition>
          <nciodm:PreferredTerm>Togo</nciodm:PreferredTerm>
        </EnumeratedItem>
        <EnumeratedItem CodedValue="THA" nciodm:ExtCodeID="C17192">
          <nciodm:CDISCSynonym>THAILAND</nciodm:CDISCSynonym>
          <nciodm:CDISCDefinition>A country in Southeastern Asia, bordering the Andaman Sea and the Gulf of Thailand, southeast of Burma. (NCI)</nciodm:CDISCDefinition>
          <nciodm:PreferredTerm>Thailand</nciodm:PreferredTerm>
        </EnumeratedItem>
        <EnumeratedItem CodedValue="TJK" nciodm:ExtCodeID="C17183">
          <nciodm:CDISCSynonym>TAJIKISTAN</nciodm:CDISCSynonym>
          <nciodm:CDISCDefinition>A country in Central Asia, west of China. (NCI)</nciodm:CDISCDefinition>
          <nciodm:PreferredTerm>Tajikistan</nciodm:PreferredTerm>
        </EnumeratedItem>
        <EnumeratedItem CodedValue="TKL" nciodm:ExtCodeID="C17704">
          <nciodm:CDISCSynonym>TOKELAU</nciodm:CDISCSynonym>
          <nciodm:CDISCDefinition>A group of three atolls in the South Pacific Ocean, about one-half of the way from Hawaii to New Zealand. (NCI)</nciodm:CDISCDefinition>
          <nciodm:PreferredTerm>Tokelau</nciodm:PreferredTerm>
        </EnumeratedItem>
        <EnumeratedItem CodedValue="TKM" nciodm:ExtCodeID="C17223">
          <nciodm:CDISCSynonym>TURKMENISTAN</nciodm:CDISCSynonym>
          <nciodm:CDISCDefinition>A country in Central Asia, bordering the Caspian Sea, between Iran and Kazakhstan. (NCI)</nciodm:CDISCDefinition>
          <nciodm:PreferredTerm>Turkmenistan</nciodm:PreferredTerm>
        </EnumeratedItem>
        <EnumeratedItem CodedValue="TLS" nciodm:ExtCodeID="C17200">
          <nciodm:CDISCSynonym>TIMOR-LESTE</nciodm:CDISCSynonym>
          <nciodm:CDISCDefinition>A country in Southeastern Asia, northwest of Australia in the Lesser Sunda Islands at the eastern end of the Indonesian archipelago. East Timor includes the eastern half of the island of Timor, the Oecussi (Ambeno) region on the northwest portion of the island of Timor, and the islands of Pulau Atauro and Pulau Jaco. (NCI)</nciodm:CDISCDefinition>
          <nciodm:PreferredTerm>Timor-Leste</nciodm:PreferredTerm>
        </EnumeratedItem>
        <EnumeratedItem CodedValue="TON" nciodm:ExtCodeID="C17205">
          <nciodm:CDISCSynonym>TONGA</nciodm:CDISCSynonym>
          <nciodm:CDISCDefinition>An archipelago in the South Pacific Ocean, about two-thirds of the way from Hawaii to New Zealand. (NCI)</nciodm:CDISCDefinition>
          <nciodm:PreferredTerm>Tonga</nciodm:PreferredTerm>
        </EnumeratedItem>
        <EnumeratedItem CodedValue="TTO" nciodm:ExtCodeID="C17217">
          <nciodm:CDISCSynonym>TRINIDAD AND TOBAGO</nciodm:CDISCSynonym>
          <nciodm:CDISCDefinition>Islands between the Caribbean Sea and the North Atlantic Ocean, northeast of Venezuela. (NCI)</nciodm:CDISCDefinition>
          <nciodm:PreferredTerm>Trinidad and Tobago</nciodm:PreferredTerm>
        </EnumeratedItem>
        <EnumeratedItem CodedValue="TUN" nciodm:ExtCodeID="C17221">
          <nciodm:CDISCSynonym>TUNISIA</nciodm:CDISCSynonym>
          <nciodm:CDISCDefinition>A country in Northern Africa, bordering the Mediterranean Sea, between Algeria and Libya. (NCI)</nciodm:CDISCDefinition>
          <nciodm:PreferredTerm>Tunisia</nciodm:PreferredTerm>
        </EnumeratedItem>
        <EnumeratedItem CodedValue="TUR" nciodm:ExtCodeID="C17222">
          <nciodm:CDISCSynonym>TURKEY</nciodm:CDISCSynonym>
          <nciodm:CDISCDefinition>A country in southeastern Europe and southwestern Asia (that portion of Turkey west of the Bosporus is geographically part of Europe), bordering the Black Sea, between Bulgaria and Georgia, and bordering the Aegean Sea and the Mediterranean Sea, between Greece and Syria. (NCI)</nciodm:CDISCDefinition>
          <nciodm:PreferredTerm>Turkey</nciodm:PreferredTerm>
        </EnumeratedItem>
        <EnumeratedItem CodedValue="TUV" nciodm:ExtCodeID="C17225">
          <nciodm:CDISCSynonym>TUVALU</nciodm:CDISCSynonym>
          <nciodm:CDISCDefinition>An island group consisting of nine coral atolls in the South Pacific Ocean, about one-half of the way from Hawaii to Australia. (NCI)</nciodm:CDISCDefinition>
          <nciodm:PreferredTerm>Tuvalu</nciodm:PreferredTerm>
        </EnumeratedItem>
        <EnumeratedItem CodedValue="TWN" nciodm:ExtCodeID="C17184">
          <nciodm:CDISCSynonym>TAIWAN</nciodm:CDISCSynonym>
          <nciodm:CDISCDefinition>A group of islands bordering the East China Sea, Philippine Sea, South China Sea, and Taiwan Strait, north of the Philippines, off the southeastern coast of China. (NCI)</nciodm:CDISCDefinition>
          <nciodm:PreferredTerm>Taiwan, Province of China</nciodm:PreferredTerm>
        </EnumeratedItem>
        <EnumeratedItem CodedValue="TZA" nciodm:ExtCodeID="C17185">
          <nciodm:CDISCSynonym>TANZANIA, UNITED REPUBLIC OF</nciodm:CDISCSynonym>
          <nciodm:CDISCDefinition>A country in Eastern Africa, bordering the Indian Ocean, between Kenya and Mozambique. (NCI)</nciodm:CDISCDefinition>
          <nciodm:PreferredTerm>Tanzania, United Republic of</nciodm:PreferredTerm>
        </EnumeratedItem>
        <EnumeratedItem CodedValue="UGA" nciodm:ExtCodeID="C17228">
          <nciodm:CDISCSynonym>UGANDA</nciodm:CDISCSynonym>
          <nciodm:CDISCDefinition>A country in Eastern Africa, west of Kenya. (NCI)</nciodm:CDISCDefinition>
          <nciodm:PreferredTerm>Uganda</nciodm:PreferredTerm>
        </EnumeratedItem>
        <EnumeratedItem CodedValue="UKR" nciodm:ExtCodeID="C17229">
          <nciodm:CDISCSynonym>UKRAINE</nciodm:CDISCSynonym>
          <nciodm:CDISCDefinition>A country in Eastern Europe, bordering the Black Sea, between Poland and Russia. (NCI)</nciodm:CDISCDefinition>
          <nciodm:PreferredTerm>Ukraine</nciodm:PreferredTerm>
        </EnumeratedItem>
        <EnumeratedItem CodedValue="UMI" nciodm:ExtCodeID="C20112">
          <nciodm:CDISCSynonym>UNITED STATES MINOR OUTLYING ISLANDS</nciodm:CDISCSynonym>
          <nciodm:CDISCDefinition>The U.S. Minor Outlying Islands consist of Baker Island, Howland Island, Jarvis Island, Johnston Atoll, Kingman Reef, Midway Island, Navassa Island, Palmyra Atoll, and Wake Island (Wake Atoll). (NCI)</nciodm:CDISCDefinition>
          <nciodm:PreferredTerm>United States Minor Outlying Islands</nciodm:PreferredTerm>
        </EnumeratedItem>
        <EnumeratedItem CodedValue="URY" nciodm:ExtCodeID="C17244">
          <nciodm:CDISCSynonym>URUGUAY</nciodm:CDISCSynonym>
          <nciodm:CDISCDefinition>A country in Southern South America, bordering the South Atlantic Ocean, between Argentina and Brazil. (NCI)</nciodm:CDISCDefinition>
          <nciodm:PreferredTerm>Uruguay</nciodm:PreferredTerm>
        </EnumeratedItem>
        <EnumeratedItem CodedValue="USA" nciodm:ExtCodeID="C17234">
          <nciodm:CDISCSynonym>UNITED STATES</nciodm:CDISCSynonym>
          <nciodm:CDISCDefinition>A country in North America, bordering both the North Atlantic Ocean and the North Pacific Ocean, between Canada and Mexico. (NCI)</nciodm:CDISCDefinition>
          <nciodm:PreferredTerm>United States</nciodm:PreferredTerm>
        </EnumeratedItem>
        <EnumeratedItem CodedValue="UZB" nciodm:ExtCodeID="C17246">
          <nciodm:CDISCSynonym>UZBEKISTAN</nciodm:CDISCSynonym>
          <nciodm:CDISCDefinition>A country in Central Asia, north of Afghanistan. (NCI)</nciodm:CDISCDefinition>
          <nciodm:PreferredTerm>Uzbekistan</nciodm:PreferredTerm>
        </EnumeratedItem>
        <EnumeratedItem CodedValue="VAT" nciodm:ExtCodeID="C17249">
          <nciodm:CDISCSynonym>VATICAN CITY STATE</nciodm:CDISCSynonym>
          <nciodm:CDISCDefinition>An enclave of Rome (Italy). (NCI)</nciodm:CDISCDefinition>
          <nciodm:PreferredTerm>Holy See (Vatican City State)</nciodm:PreferredTerm>
        </EnumeratedItem>
        <EnumeratedItem CodedValue="VCT" nciodm:ExtCodeID="C17114">
          <nciodm:CDISCSynonym>SAINT VINCENT AND THE GRENADINES</nciodm:CDISCSynonym>
          <nciodm:CDISCDefinition>A country in the Caribbean, comprised of islands in the Caribbean Sea, north of Trinidad and Tobago. (NCI)</nciodm:CDISCDefinition>
          <nciodm:PreferredTerm>Saint Vincent and the Grenadines</nciodm:PreferredTerm>
        </EnumeratedItem>
        <EnumeratedItem CodedValue="VEN" nciodm:ExtCodeID="C17250">
          <nciodm:CDISCSynonym>VENEZUELA</nciodm:CDISCSynonym>
          <nciodm:CDISCDefinition>A country in Northern South America, bordering the Caribbean Sea and the North Atlantic Ocean, between Colombia and Guyana. (NCI)</nciodm:CDISCDefinition>
          <nciodm:PreferredTerm>Venezuela</nciodm:PreferredTerm>
        </EnumeratedItem>
        <EnumeratedItem CodedValue="VGB" nciodm:ExtCodeID="C17653">
          <nciodm:CDISCSynonym>VIRGIN ISLANDS, BRITISH</nciodm:CDISCSynonym>
          <nciodm:CDISCDefinition>Islands between the Caribbean Sea and the North Atlantic Ocean, east of Puerto Rico. (NCI)</nciodm:CDISCDefinition>
          <nciodm:PreferredTerm>Virgin Islands, British</nciodm:PreferredTerm>
        </EnumeratedItem>
        <EnumeratedItem CodedValue="VIR" nciodm:ExtCodeID="C17255">
          <nciodm:CDISCSynonym>VIRGIN ISLANDS, U.S.</nciodm:CDISCSynonym>
          <nciodm:CDISCDefinition>Islands between the Caribbean Sea and the North Atlantic Ocean, east of Puerto Rico. (NCI)</nciodm:CDISCDefinition>
          <nciodm:PreferredTerm>Virgin Islands, U.S.</nciodm:PreferredTerm>
        </EnumeratedItem>
        <EnumeratedItem CodedValue="VNM" nciodm:ExtCodeID="C17252">
          <nciodm:CDISCSynonym>VIETNAM</nciodm:CDISCSynonym>
          <nciodm:CDISCDefinition>A country in Southeastern Asia, bordering the Gulf of Thailand, Gulf of Tonkin, and South China Sea, alongside China, Laos, and Cambodia. (NCI)</nciodm:CDISCDefinition>
          <nciodm:PreferredTerm>Viet Nam</nciodm:PreferredTerm>
        </EnumeratedItem>
        <EnumeratedItem CodedValue="VUT" nciodm:ExtCodeID="C17247">
          <nciodm:CDISCSynonym>VANUATU</nciodm:CDISCSynonym>
          <nciodm:CDISCDefinition>A group of islands in the South Pacific Ocean, about three-quarters of the way from Hawaii to Australia. (NCI)</nciodm:CDISCDefinition>
          <nciodm:PreferredTerm>Vanuatu</nciodm:PreferredTerm>
        </EnumeratedItem>
        <EnumeratedItem CodedValue="WLF" nciodm:ExtCodeID="C17259">
          <nciodm:CDISCSynonym>WALLIS AND FUTUNA</nciodm:CDISCSynonym>
          <nciodm:CDISCDefinition>Islands in the South Pacific Ocean, about two-thirds of the way from Hawaii to New Zealand. (NCI)</nciodm:CDISCDefinition>
          <nciodm:PreferredTerm>Wallis and Futuna</nciodm:PreferredTerm>
        </EnumeratedItem>
        <EnumeratedItem CodedValue="WSM" nciodm:ExtCodeID="C17740">
          <nciodm:CDISCSynonym>SAMOA</nciodm:CDISCSynonym>
          <nciodm:CDISCDefinition>A group of islands in the South Pacific Ocean, about one-half of the way from Hawaii to New Zealand. (NCI)</nciodm:CDISCDefinition>
          <nciodm:PreferredTerm>Samoa</nciodm:PreferredTerm>
        </EnumeratedItem>
        <EnumeratedItem CodedValue="YEM" nciodm:ExtCodeID="C17264">
          <nciodm:CDISCSynonym>YEMEN</nciodm:CDISCSynonym>
          <nciodm:CDISCDefinition>A country in the Middle East, bordering the Arabian Sea, Gulf of Aden, and Red Sea, between Oman and Saudi Arabia. (NCI)</nciodm:CDISCDefinition>
          <nciodm:PreferredTerm>Yemen</nciodm:PreferredTerm>
        </EnumeratedItem>
        <EnumeratedItem CodedValue="ZAF" nciodm:ExtCodeID="C17151">
          <nciodm:CDISCSynonym>SOUTH AFRICA</nciodm:CDISCSynonym>
          <nciodm:CDISCDefinition>A country in Southern Africa, at the southern tip of the continent of Africa. (NCI)</nciodm:CDISCDefinition>
          <nciodm:PreferredTerm>South Africa</nciodm:PreferredTerm>
        </EnumeratedItem>
        <EnumeratedItem CodedValue="ZMB" nciodm:ExtCodeID="C17267">
          <nciodm:CDISCSynonym>ZAMBIA</nciodm:CDISCSynonym>
          <nciodm:CDISCDefinition>A country in Southern Africa, east of Angola. (NCI)</nciodm:CDISCDefinition>
          <nciodm:PreferredTerm>Zambia</nciodm:PreferredTerm>
        </EnumeratedItem>
        <EnumeratedItem CodedValue="ZWE" nciodm:ExtCodeID="C17268">
          <nciodm:CDISCSynonym>ZIMBABWE</nciodm:CDISCSynonym>
          <nciodm:CDISCDefinition>A country in Southern Africa, between South Africa and Zambia. (NCI)</nciodm:CDISCDefinition>
          <nciodm:PreferredTerm>Zimbabwe</nciodm:PreferredTerm>
        </EnumeratedItem>
        <EnumeratedItem CodedValue="SXM" nciodm:ExtCodeID="C101226">
          <nciodm:CDISCSynonym>SINT MAARTEN (DUTCH)</nciodm:CDISCSynonym>
          <nciodm:CDISCDefinition>The southern portion of an island in the Caribbean sea, between Anguilla and Saint Barthelemy. (NCI)</nciodm:CDISCDefinition>
          <nciodm:PreferredTerm>Sint Maarten (Dutch Part)</nciodm:PreferredTerm>
        </EnumeratedItem>
        <EnumeratedItem CodedValue="BES" nciodm:ExtCodeID="C101224">
          <nciodm:CDISCSynonym>Bonaire, Sint Eustatius and Saba</nciodm:CDISCSynonym>
          <nciodm:CDISCDefinition>Three Caribbean islands that are part of the Lesser Antilles; Bonaire is east of Aruba and Curacao off the coast of Venezuela, Sint Eustatius and Saba are located south of Sint Maarten and northeast of Saint Kitts and Nevis. (NCI)</nciodm:CDISCDefinition>
          <nciodm:PreferredTerm>Bonaire, Sint Eustatius and Saba</nciodm:PreferredTerm>
        </EnumeratedItem>
        <EnumeratedItem CodedValue="CUW" nciodm:ExtCodeID="C101225">
          <nciodm:CDISCSynonym>Curacao</nciodm:CDISCSynonym>
          <nciodm:CDISCDefinition>An island nation located in the Caribbean Sea off the coast of Venezuela. (NCI)</nciodm:CDISCDefinition>
          <nciodm:PreferredTerm>Curacao</nciodm:PreferredTerm>
        </EnumeratedItem>
        <EnumeratedItem CodedValue="SSD" nciodm:ExtCodeID="C97351">
          <nciodm:CDISCSynonym>South Sudan</nciodm:CDISCSynonym>
          <nciodm:CDISCDefinition>A northeastern African country located in the Sahel region and bordered by Sudan in the north, Uganda and Kenya in the south and Ethiopia in the west. (NCI)</nciodm:CDISCDefinition>
          <nciodm:PreferredTerm>South Sudan</nciodm:PreferredTerm>
        </EnumeratedItem>
        <nciodm:CDISCSubmissionValue>COUNTRY</nciodm:CDISCSubmissionValue>
        <nciodm:CDISCSynonym>Country</nciodm:CDISCSynonym>
        <nciodm:PreferredTerm>CDISC SDTM Country Terminology</nciodm:PreferredTerm>
      </CodeList>
      <CodeList OID="CL.C66787.TDIGRP" Name="Diagnosis Group" DataType="text" nciodm:ExtCodeID="C66787" nciodm:CodeListExtensible="Yes">
        <Description>
          <TranslatedText xml:lang="en">A grouping of individuals on the basis of a shared procedure or disease, or lack thereof (e.g. healthy volunteers, type 2 diabetic subjects, subjects with renal cell cancer). Standardized naming systems are available that define the groups within which a subject should be placed. (NCI)</TranslatedText>
        </Description>
        <EnumeratedItem CodedValue="HEALTHY SUBJECTS" nciodm:ExtCodeID="C49651">
          <nciodm:CDISCDefinition>An individual who is or becomes a participant in a research study and has no significant health-related issues. (NCI)</nciodm:CDISCDefinition>
          <nciodm:PreferredTerm>Healthy Subject</nciodm:PreferredTerm>
        </EnumeratedItem>
        <nciodm:CDISCSubmissionValue>TDIGRP</nciodm:CDISCSubmissionValue>
        <nciodm:CDISCSynonym>Diagnosis Group</nciodm:CDISCSynonym>
        <nciodm:PreferredTerm>CDISC SDTM Diagnosis Group Terminology</nciodm:PreferredTerm>
      </CodeList>
      <CodeList OID="CL.C66788.DICTNAM" Name="Dictionary Name" DataType="text" nciodm:ExtCodeID="C66788" nciodm:CodeListExtensible="Yes">
        <Description>
          <TranslatedText xml:lang="en">A name given to a reference source that lists words and gives their meaning. (NCI)</TranslatedText>
        </Description>
        <EnumeratedItem CodedValue="COSTART" nciodm:ExtCodeID="C49471">
          <nciodm:CDISCSynonym>Coding Symbols for a Thesaurus of Adverse Reaction Terms</nciodm:CDISCSynonym>
          <nciodm:CDISCDefinition>A terminology developed and used by the Food and Drug Administration (FDA) for the coding, filing and retrieving of post marketing adverse reaction reports. (NCI)</nciodm:CDISCDefinition>
          <nciodm:PreferredTerm>Thesaurus of Adverse Reaction Term Coding Symbols</nciodm:PreferredTerm>
        </EnumeratedItem>
        <EnumeratedItem CodedValue="ICD" nciodm:ExtCodeID="C49474">
          <nciodm:CDISCSynonym>International Classification of Diseases</nciodm:CDISCSynonym>
          <nciodm:CDISCDefinition>A system of categories to which morbid entries are assigned according to established criteria. Included is the entire range of conditions in a manageable number of categories, grouped to facilitate mortality reporting. It is produced by the World Health Organization (from ICD-10, p1). The Clinical Modifications, produced by the United States Dept. of Health and Human Services, are larger extensions used for morbidity and general epidemiological purposes, primarily in the U.S. (MSH2005_2004_10_12)</nciodm:CDISCDefinition>
          <nciodm:PreferredTerm>International Classification of Diseases</nciodm:PreferredTerm>
        </EnumeratedItem>
        <EnumeratedItem CodedValue="LOINC" nciodm:ExtCodeID="C49476">
          <nciodm:CDISCSynonym>Logical Observation Identifiers Names and Codes</nciodm:CDISCSynonym>
          <nciodm:CDISCDefinition>Published by The Regenstrief Institute, the Logical Observation Identifiers Names and Codes covers clinical and clinical laboratory terminology. (NCI)</nciodm:CDISCDefinition>
          <nciodm:PreferredTerm>Logical Observation Identifiers Names and Codes</nciodm:PreferredTerm>
        </EnumeratedItem>
        <EnumeratedItem CodedValue="MedDRA" nciodm:ExtCodeID="C43820">
          <nciodm:CDISCSynonym>Medical Dictionary for Regulatory Activities</nciodm:CDISCSynonym>
          <nciodm:CDISCDefinition>MedDRA is an international medical terminology designed to support the classification, retrieval, presentation, and communication of medical information throughout the medical product regulatory cycle. MedDRA was developed under the auspices of the International Conference on Harmonisation of Technical Requirements for Registration of Pharmaceuticals for Human Use (ICH). The MedDRA Maintenance and Support Services Organization (MSSO) holds a contract with the International Federation of Pharmaceutical Manufacturers Associations (IFPMA) to maintain and support the implementation of the terminology. (NCI)</nciodm:CDISCDefinition>
          <nciodm:PreferredTerm>MedDRA</nciodm:PreferredTerm>
        </EnumeratedItem>
        <EnumeratedItem CodedValue="SNOMED" nciodm:ExtCodeID="C53489">
          <nciodm:CDISCSynonym>Systematized Nomenclature of Medicine</nciodm:CDISCSynonym>
          <nciodm:CDISCDefinition>A multiaxial, hierarchical classification system for diseases in man developed by the College of American Pathologists. (NCI)</nciodm:CDISCDefinition>
          <nciodm:PreferredTerm>Systematized Nomenclature of Medicine</nciodm:PreferredTerm>
        </EnumeratedItem>
        <EnumeratedItem CodedValue="WHOART" nciodm:ExtCodeID="C49468">
          <nciodm:CDISCSynonym>World Health Organization Adverse Reaction Terms</nciodm:CDISCSynonym>
          <nciodm:CDISCDefinition>A terminology implemented by the World Health Organization to describe adverse reactions to a prescribed medication or treatment regimen. (NCI)</nciodm:CDISCDefinition>
          <nciodm:PreferredTerm>World Health Organization Adverse Reaction Terminology</nciodm:PreferredTerm>
        </EnumeratedItem>
        <EnumeratedItem CodedValue="WHODD" nciodm:ExtCodeID="C49475">
          <nciodm:CDISCSynonym>World Health Organization Drug Dictionary</nciodm:CDISCSynonym>
          <nciodm:CDISCDefinition>A reference source of drugs and drug associated information maintained by the World Health Organization. (NCI)</nciodm:CDISCDefinition>
          <nciodm:PreferredTerm>World Health Organization Drug Dictionary</nciodm:PreferredTerm>
        </EnumeratedItem>
        <nciodm:CDISCSubmissionValue>DICTNAM</nciodm:CDISCSubmissionValue>
        <nciodm:CDISCSynonym>Dictionary Name</nciodm:CDISCSynonym>
        <nciodm:PreferredTerm>CDISC SDTM Dictionary Name Terminology</nciodm:PreferredTerm>
      </CodeList>
      <CodeList OID="CL.C66789.ND" Name="Not Done" DataType="text" nciodm:ExtCodeID="C66789" nciodm:CodeListExtensible="No">
        <Description>
          <TranslatedText xml:lang="en">Indicates a task, process or examination that has either not been initiated or completed. (NCI)</TranslatedText>
        </Description>
        <EnumeratedItem CodedValue="NOT DONE" nciodm:ExtCodeID="C49484">
          <nciodm:CDISCDefinition>Indicates a task, process or examination that has either not been initiated or completed. (NCI)</nciodm:CDISCDefinition>
          <nciodm:PreferredTerm>Not Done</nciodm:PreferredTerm>
        </EnumeratedItem>
        <nciodm:CDISCSubmissionValue>ND</nciodm:CDISCSubmissionValue>
        <nciodm:CDISCSynonym>Not Done</nciodm:CDISCSynonym>
        <nciodm:PreferredTerm>CDISC SDTM Not Done Terminology</nciodm:PreferredTerm>
      </CodeList>
      <CodeList OID="CL.C66790.ETHNIC" Name="Ethnic Group" DataType="text" nciodm:ExtCodeID="C66790" nciodm:CodeListExtensible="Yes">
        <Description>
          <TranslatedText xml:lang="en">A social group characterized by a distinctive social and cultural tradition maintained from generation to generation, a common history and origin and a sense of identification with the group; members of the group have distinctive features in their way of life, shared experiences and often a common genetic heritage; these features may be reflected in their experience of health and disease. (NCI)</TranslatedText>
        </Description>
        <EnumeratedItem CodedValue="HISPANIC OR LATINO" nciodm:ExtCodeID="C17459">
          <nciodm:CDISCDefinition>A person of Mexican, Puerto Rican, Cuban, Central or South American or other Spanish culture or origin, regardless of race. (NCI)</nciodm:CDISCDefinition>
          <nciodm:PreferredTerm>Hispanic or Latino</nciodm:PreferredTerm>
        </EnumeratedItem>
        <EnumeratedItem CodedValue="NOT HISPANIC OR LATINO" nciodm:ExtCodeID="C41222">
          <nciodm:CDISCDefinition>A person not of Cuban, Mexican, Puerto Rican, South or Central American, or other Spanish culture or origin, regardless of race. An arbitrary ethnic classification. (NCI)</nciodm:CDISCDefinition>
          <nciodm:PreferredTerm>Not Hispanic or Latino</nciodm:PreferredTerm>
        </EnumeratedItem>
        <EnumeratedItem CodedValue="NOT REPORTED" nciodm:ExtCodeID="C43234">
          <nciodm:CDISCSynonym>Not reported</nciodm:CDISCSynonym>
          <nciodm:CDISCDefinition>Not provided or available.</nciodm:CDISCDefinition>
          <nciodm:PreferredTerm>Not Stated</nciodm:PreferredTerm>
        </EnumeratedItem>
        <EnumeratedItem CodedValue="UNKNOWN" nciodm:ExtCodeID="C17998">
          <nciodm:CDISCSynonym>U</nciodm:CDISCSynonym>
          <nciodm:CDISCSynonym>Unknown</nciodm:CDISCSynonym>
          <nciodm:CDISCDefinition>Not known, not observed, not recorded, or refused. (NCI)</nciodm:CDISCDefinition>
          <nciodm:PreferredTerm>Unknown</nciodm:PreferredTerm>
        </EnumeratedItem>
        <nciodm:CDISCSubmissionValue>ETHNIC</nciodm:CDISCSubmissionValue>
        <nciodm:CDISCSynonym>Ethnic Group</nciodm:CDISCSynonym>
        <nciodm:PreferredTerm>CDISC SDTM Ethnic Group Terminology</nciodm:PreferredTerm>
      </CodeList>
      <CodeList OID="CL.C66726.FRM" Name="Pharmaceutical Dosage Form" DataType="text" nciodm:ExtCodeID="C66726" nciodm:CodeListExtensible="Yes">
        <Description>
          <TranslatedText xml:lang="en">The form of the completed pharmaceutical product, e.g. tablet, capsule, injection, elixir, suppository. Dosage form can have a significant effect on the onset, duration and intensity of the pharmacological action of a drug. A pharmaceutical dosage form controls the rate at which the drug is released into the biological fluids. This release rate affects its intrinsic absorption pattern and therefore, the bioavailability of the drug.</TranslatedText>
        </Description>
        <EnumeratedItem CodedValue="AEROSOL" nciodm:ExtCodeID="C42887">
          <nciodm:CDISCSynonym>aer</nciodm:CDISCSynonym>
          <nciodm:CDISCDefinition>A product that is packaged under pressure and contains therapeutically active ingredients that are released upon activation of an appropriate valve system; it is intended for topical application to the skin as well as local application into the nose (nasal aerosols), mouth (lingual aerosols), or lungs (inhalation aerosols). (FDA)</nciodm:CDISCDefinition>
          <nciodm:PreferredTerm>Aerosol Dosage Form</nciodm:PreferredTerm>
        </EnumeratedItem>
        <EnumeratedItem CodedValue="AEROSOL, FOAM" nciodm:ExtCodeID="C42888">
          <nciodm:CDISCDefinition>A dosage form containing one or more active ingredients, surfactants, aqueous or non-aqueous liquids, and the propellants; if the propellant is in the internal (discontinuous) phase (i.e., of the oil-in-water type), a stable foam is discharged, and if the propellant is in the external (continuous) phase (i.e., of the water-in-oil type), a spray or a quick-breaking foam is discharged. (FDA)</nciodm:CDISCDefinition>
          <nciodm:PreferredTerm>Aerosol Foam Dosage Form</nciodm:PreferredTerm>
        </EnumeratedItem>
        <EnumeratedItem CodedValue="AEROSOL, METERED" nciodm:ExtCodeID="C42960">
          <nciodm:CDISCDefinition>A pressurized dosage form consisting of metered dose valves which allow for the delivery of a uniform quantity of spray upon each activation. (NCI)</nciodm:CDISCDefinition>
          <nciodm:PreferredTerm>Metered Aerosol Dosage Form</nciodm:PreferredTerm>
        </EnumeratedItem>
        <EnumeratedItem CodedValue="AEROSOL, POWDER" nciodm:ExtCodeID="C42971">
          <nciodm:CDISCDefinition>A product that is packaged under pressure and contains therapeutically active ingredients, in the form of a powder, that are released upon activation of an appropriate valve system. (NCI)</nciodm:CDISCDefinition>
          <nciodm:PreferredTerm>Powder Aerosol Dosage Form</nciodm:PreferredTerm>
        </EnumeratedItem>
        <EnumeratedItem CodedValue="AEROSOL, SPRAY" nciodm:ExtCodeID="C42889">
          <nciodm:CDISCDefinition>An aerosol product which utilizes a compressed gas as the propellant to provide the force necessary to expel the product as a wet spray; it is applicable to solutions of medicinal agents in aqueous solvents. (NCI)</nciodm:CDISCDefinition>
          <nciodm:PreferredTerm>Aerosol Spray Dosage Form</nciodm:PreferredTerm>
        </EnumeratedItem>
        <EnumeratedItem CodedValue="BAR, CHEWABLE" nciodm:ExtCodeID="C42892">
          <nciodm:CDISCDefinition>A solid dosage form usually in the form of a rectangle that is meant to be chewed. (NCI)</nciodm:CDISCDefinition>
          <nciodm:PreferredTerm>Chewable Bar Dosage Form</nciodm:PreferredTerm>
        </EnumeratedItem>
        <EnumeratedItem CodedValue="BEAD" nciodm:ExtCodeID="C42890">
          <nciodm:CDISCDefinition>A solid dosage form in the shape of a small ball. (NCI)</nciodm:CDISCDefinition>
          <nciodm:PreferredTerm>Bead Dosage Form</nciodm:PreferredTerm>
        </EnumeratedItem>
        <EnumeratedItem CodedValue="BEAD, IMPLANT, EXTENDED RELEASE" nciodm:ExtCodeID="C43451">
          <nciodm:CDISCDefinition>A small sterile solid mass consisting of a highly purified drug intended for implantation in the body which would allow at least a reduction in dosing frequency as compared to that drug presented as a conventional dosage form. (NCI)</nciodm:CDISCDefinition>
          <nciodm:PreferredTerm>Extended Release Bead Implant Dosage Form</nciodm:PreferredTerm>
        </EnumeratedItem>
        <EnumeratedItem CodedValue="BLOCK" nciodm:ExtCodeID="C42891">
          <nciodm:CDISCDefinition>Solid dosage form, usually in the shape of a square or rectangle. (NCI)</nciodm:CDISCDefinition>
          <nciodm:PreferredTerm>Block Dosage Form</nciodm:PreferredTerm>
        </EnumeratedItem>
        <EnumeratedItem CodedValue="CAPLET" nciodm:ExtCodeID="C97197">
          <nciodm:CDISCDefinition>A solid dosage form in which a tablet has been compacted into capsule shape.</nciodm:CDISCDefinition>
          <nciodm:PreferredTerm>Caplet Dosage Form</nciodm:PreferredTerm>
        </EnumeratedItem>
        <EnumeratedItem CodedValue="CAPSULE" nciodm:ExtCodeID="C25158">
          <nciodm:CDISCSynonym>cap</nciodm:CDISCSynonym>
          <nciodm:CDISCDefinition>A solid pharmaceutical dosage form that contains medicinal agent within either a hard or soft soluble container or shell, usually used for the oral administration of medicine. The shells are made of a suitable form of gelatin or other substance. (NCI)</nciodm:CDISCDefinition>
          <nciodm:PreferredTerm>Capsule Dosage Form</nciodm:PreferredTerm>
        </EnumeratedItem>
        <EnumeratedItem CodedValue="CAPSULE, COATED" nciodm:ExtCodeID="C42895">
          <nciodm:CDISCDefinition>A solid dosage form in which the drug is enclosed within either a hard or soft soluble container or "shell" made from a suitable form of gelatin; additionally, the capsule is covered in a designated coating. (NCI)</nciodm:CDISCDefinition>
          <nciodm:PreferredTerm>Coated Capsule Dosage Form</nciodm:PreferredTerm>
        </EnumeratedItem>
        <EnumeratedItem CodedValue="CAPSULE, COATED PELLETS" nciodm:ExtCodeID="C42896">
          <nciodm:CDISCDefinition>A solid dosage form in which the drug is enclosed within either a hard or soft soluble container or "shell" made from a suitable form of gelatin; the drug itself is in the form of granules to which varying amounts of coating have been applied. (NCI)</nciodm:CDISCDefinition>
          <nciodm:PreferredTerm>Coated Pellets in Capsule Dosage Form</nciodm:PreferredTerm>
        </EnumeratedItem>
        <EnumeratedItem CodedValue="CAPSULE, COATED, EXTENDED RELEASE" nciodm:ExtCodeID="C42917">
          <nciodm:CDISCDefinition>A solid dosage form in which the drug is enclosed within either a hard or soft soluble container or "shell" made from a suitable form of gelatin; additionally, the capsule is covered in a designated coating, and which releases a drug (or drugs) in such a manner to allow at least a reduction in dosing frequency as compared to that drug (or drugs) presented as a conventional dosage form. (NCI)</nciodm:CDISCDefinition>
          <nciodm:PreferredTerm>Extended Release Coated Capsule Dosage Form</nciodm:PreferredTerm>
        </EnumeratedItem>
        <EnumeratedItem CodedValue="CAPSULE, DELAYED RELEASE" nciodm:ExtCodeID="C42902">
          <nciodm:CDISCDefinition>A solid dosage form in which the drug is enclosed within either a hard or soft soluble container made from a suitable form of gelatin, and which releases a drug (or drugs) at a time other than promptly after administration. Enteric-coated articles are delayed release dosage forms. (NCI)</nciodm:CDISCDefinition>
          <nciodm:PreferredTerm>Delayed Release Capsule Dosage Form</nciodm:PreferredTerm>
        </EnumeratedItem>
        <EnumeratedItem CodedValue="CAPSULE, DELAYED RELEASE PELLETS" nciodm:ExtCodeID="C42904">
          <nciodm:CDISCDefinition>A solid dosage form in which the drug is enclosed within either a hard or soft soluble container or "shell" made from a suitable form of gelatin; the drug itself is in the form of granules to which enteric coating has been applied, thus delaying release of the drug until its passage into the intestines. (NCI)</nciodm:CDISCDefinition>
          <nciodm:PreferredTerm>Delayed Release Pellets in Capsule Dosage Form</nciodm:PreferredTerm>
        </EnumeratedItem>
        <EnumeratedItem CodedValue="CAPSULE, EXTENDED RELEASE" nciodm:ExtCodeID="C42916">
          <nciodm:CDISCDefinition>A solid dosage form in which the drug is enclosed within either a hard or soft soluble container made from a suitable form of gelatin, and which releases a drug (or drugs) in such a manner to allow a reduction in dosing frequency as compared to that drug (or drugs) presented as a conventional dosage form. (NCI)</nciodm:CDISCDefinition>
          <nciodm:PreferredTerm>Extended Release Capsule Dosage Form</nciodm:PreferredTerm>
        </EnumeratedItem>
        <EnumeratedItem CodedValue="CAPSULE, FILM COATED, EXTENDED RELEASE" nciodm:ExtCodeID="C42928">
          <nciodm:CDISCDefinition>A solid dosage form in which the drug is enclosed within either a hard or soft soluble container or "shell" made from a suitable form of gelatin; additionally, the capsule is covered in a designated film coating, and which releases a drug (or drugs) in such a manner to allow at least a reduction in dosing frequency as compared to that drug (or drugs) presented as a conventional dosage form. (NCI)</nciodm:CDISCDefinition>
          <nciodm:PreferredTerm>Extended Release Film Coated Capsule Dosage Form</nciodm:PreferredTerm>
        </EnumeratedItem>
        <EnumeratedItem CodedValue="CAPSULE, GELATIN COATED" nciodm:ExtCodeID="C42936">
          <nciodm:CDISCDefinition>A solid dosage form in which the drug is enclosed within either a hard or soft soluble container made from a suitable form of gelatin; through a banding process, the capsule is coated with additional layers of gelatin so as to form a complete seal. (NCI)</nciodm:CDISCDefinition>
          <nciodm:PreferredTerm>Gelatin Coated Capsule Dosage Form</nciodm:PreferredTerm>
        </EnumeratedItem>
        <EnumeratedItem CodedValue="CAPSULE, LIQUID FILLED" nciodm:ExtCodeID="C42954">
          <nciodm:CDISCDefinition>A solid dosage form in which the drug is enclosed within a soluble, gelatin shell which is plasticized by the addition of a polyol, such as sorbitol or glycerin, and is therefore of a somewhat thicker consistency than that of a hard shell capsule; typically, the active ingredients are dissolved or suspended in a liquid vehicle. (NCI)</nciodm:CDISCDefinition>
          <nciodm:PreferredTerm>Liquid Filled Capsule Dosage Form</nciodm:PreferredTerm>
        </EnumeratedItem>
        <EnumeratedItem CodedValue="CEMENT" nciodm:ExtCodeID="C45414">
          <nciodm:CDISCDefinition>A substance that serves to produce solid union between two surfaces. (NCI)</nciodm:CDISCDefinition>
          <nciodm:PreferredTerm>Cement Dosage Form</nciodm:PreferredTerm>
        </EnumeratedItem>
        <EnumeratedItem CodedValue="CIGARETTE" nciodm:ExtCodeID="C42678">
          <nciodm:CDISCDefinition>A narrow tube filled with material that is capable to burn with release of therapeutically-active substance(s) during the process of smoking. Cigarette is a very efficient drug-delivery inhaler system for fast-acting substances.(FDA)</nciodm:CDISCDefinition>
          <nciodm:PreferredTerm>Cigarette Dosage Form</nciodm:PreferredTerm>
        </EnumeratedItem>
        <EnumeratedItem CodedValue="CLOTH" nciodm:ExtCodeID="C60884">
          <nciodm:CDISCDefinition>A large piece of relatively flat, absorbent material that contains a drug. It is typically used for applying medication or for cleansing. (FDA)</nciodm:CDISCDefinition>
          <nciodm:PreferredTerm>Cloth Dosage Form</nciodm:PreferredTerm>
        </EnumeratedItem>
        <EnumeratedItem CodedValue="CONCENTRATE" nciodm:ExtCodeID="C60891">
          <nciodm:CDISCDefinition>A liquid preparation of increased strength and reduced volume which is usually diluted prior to administration. (NCI)</nciodm:CDISCDefinition>
          <nciodm:PreferredTerm>Concentrate Dosage Form</nciodm:PreferredTerm>
        </EnumeratedItem>
        <EnumeratedItem CodedValue="CONE" nciodm:ExtCodeID="C42900">
          <nciodm:CDISCDefinition>A solid dosage form bounded by a circular base and the surface formed by line segments joining every point of the boundary of the base to a common vertex. A cone (usually containing antibiotics) is normally placed below the gingiva after a dental extraction. (NCI)</nciodm:CDISCDefinition>
          <nciodm:PreferredTerm>Cone Dosage Form</nciodm:PreferredTerm>
        </EnumeratedItem>
        <EnumeratedItem CodedValue="CORE, EXTENDED RELEASE" nciodm:ExtCodeID="C42919">
          <nciodm:CDISCDefinition>An ocular system placed in the eye from which the drug diffuses through a membrane at a constant rate over a specified period. (NCI)</nciodm:CDISCDefinition>
          <nciodm:PreferredTerm>Extended Release Core Dosage Form</nciodm:PreferredTerm>
        </EnumeratedItem>
        <EnumeratedItem CodedValue="CREAM" nciodm:ExtCodeID="C28944">
          <nciodm:CDISCDefinition>A semisolid emulsion of either the oil-in-water or the water-in-oil type, ordinarily intended for topical use. (NCI)</nciodm:CDISCDefinition>
          <nciodm:PreferredTerm>Cream Dosage Form</nciodm:PreferredTerm>
        </EnumeratedItem>
        <EnumeratedItem CodedValue="CREAM, AUGMENTED" nciodm:ExtCodeID="C60897">
          <nciodm:CDISCDefinition>A cream dosage form that enhances drug delivery. Augmentation does not refer to the strength of the drug in the dosage form. NOTE: CDER has decided to refrain from expanding the use of this dosage form due to difficulties in setting specific criteria that must be met to be considered augmented. (FDA)</nciodm:CDISCDefinition>
          <nciodm:PreferredTerm>Augmented Cream Dosage Form</nciodm:PreferredTerm>
        </EnumeratedItem>
        <EnumeratedItem CodedValue="CRYSTAL" nciodm:ExtCodeID="C42901">
          <nciodm:CDISCDefinition>A naturally produced angular solid of definite form in which the ultimate units from which it is built up are systematically arranged; they are usually evenly spaced on a regular space lattice.</nciodm:CDISCDefinition>
          <nciodm:PreferredTerm>Crystal Dosage Form</nciodm:PreferredTerm>
        </EnumeratedItem>
        <EnumeratedItem CodedValue="CULTURE" nciodm:ExtCodeID="C45415">
          <nciodm:CDISCDefinition>The propagation of microorganisms or of living tissue cells in special media conducive to their growth. (NCI)</nciodm:CDISCDefinition>
          <nciodm:PreferredTerm>Culture Dosage Form</nciodm:PreferredTerm>
        </EnumeratedItem>
        <EnumeratedItem CodedValue="DIAPHRAGM" nciodm:ExtCodeID="C47890">
          <nciodm:CDISCDefinition>A device usually dome-shaped, worn during copulation over the cervical mouth for prevention of conception or infection. (NCI)</nciodm:CDISCDefinition>
          <nciodm:PreferredTerm>Diaphragm Dosage Form</nciodm:PreferredTerm>
        </EnumeratedItem>
        <EnumeratedItem CodedValue="DISC" nciodm:ExtCodeID="C43525">
          <nciodm:CDISCDefinition>A circular plate-like organ or structure. (FDA)</nciodm:CDISCDefinition>
          <nciodm:PreferredTerm>Disc Dosage Form</nciodm:PreferredTerm>
        </EnumeratedItem>
        <EnumeratedItem CodedValue="DOUCHE" nciodm:ExtCodeID="C42679">
          <nciodm:CDISCDefinition>A liquid preparation, intended for the irrigative cleansing of the vagina, that is prepared from powders, liquid solutions, or liquid concentrates and contains one or more chemical substances dissolved in a suitable solvent or mutually miscible solvents. (NCI)</nciodm:CDISCDefinition>
          <nciodm:PreferredTerm>Douche Dosage Form</nciodm:PreferredTerm>
        </EnumeratedItem>
        <EnumeratedItem CodedValue="DRESSING" nciodm:ExtCodeID="C42763">
          <nciodm:CDISCDefinition>The application of various materials for protecting a wound.(FDA)</nciodm:CDISCDefinition>
          <nciodm:PreferredTerm>Dressing Dosage Form</nciodm:PreferredTerm>
        </EnumeratedItem>
        <EnumeratedItem CodedValue="DRUG DELIVERY SYSTEM" nciodm:ExtCodeID="C17423">
          <nciodm:CDISCDefinition>Modern technology, distributed with or as a part of a drug product that allows for the uniform release or targeting of drugs to the body. (FDA)</nciodm:CDISCDefinition>
          <nciodm:PreferredTerm>Drug Delivery System</nciodm:PreferredTerm>
        </EnumeratedItem>
        <EnumeratedItem CodedValue="ELIXIR" nciodm:ExtCodeID="C42912">
          <nciodm:CDISCDefinition>A clear, pleasantly flavored, sweetened hydroalcoholic liquid containing dissolved medicinal agents; it is intended for oral use. (NCI)</nciodm:CDISCDefinition>
          <nciodm:PreferredTerm>Elixir Dosage Form</nciodm:PreferredTerm>
        </EnumeratedItem>
        <EnumeratedItem CodedValue="EMULSION" nciodm:ExtCodeID="C42913">
          <nciodm:CDISCDefinition>A dosage form consisting of a two-phase system comprised of at least two immiscible liquids (1), one of which is dispersed as droplets (internal or dispersed phase) within the other liquid (external or continuous phase), generally stabilized with one or more emulsifying agents. Note 1: A liquid is pourable; it flows and conforms to its container at room temperature. It displays Newtonian or pseudoplastic flow behavior. Note 2: Emulsion is used as a dosage form term unless a more specific term is applicable, e.g. cream, lotion, ointment. (NCI)</nciodm:CDISCDefinition>
          <nciodm:PreferredTerm>Emulsion Dosage Form</nciodm:PreferredTerm>
        </EnumeratedItem>
        <EnumeratedItem CodedValue="ENEMA" nciodm:ExtCodeID="C42915">
          <nciodm:CDISCDefinition>A rectal preparation for therapeutic, diagnostic, or nutritive purposes. (NCI)</nciodm:CDISCDefinition>
          <nciodm:PreferredTerm>Enema Dosage Form</nciodm:PreferredTerm>
        </EnumeratedItem>
        <EnumeratedItem CodedValue="EXTRACT" nciodm:ExtCodeID="C42929">
          <nciodm:CDISCDefinition>A concentrated preparation of vegetable or animal drugs obtained by removal of the active constituents of the respective drugs with a suitable menstrua, evaporation of all or nearly all of the solvent, and adjustment of the residual masses or powders to the prescribed standards. (NCI)</nciodm:CDISCDefinition>
          <nciodm:PreferredTerm>Extract Dosage Form</nciodm:PreferredTerm>
        </EnumeratedItem>
        <EnumeratedItem CodedValue="FIBER, EXTENDED RELEASE" nciodm:ExtCodeID="C60926">
          <nciodm:CDISCDefinition>A slender and elongated solid thread-like substance that delivers drug in such a manner to allow a reduction in dosing frequency as compared to that drug (or drugs) presented as a conventional dosage form. (FDA)</nciodm:CDISCDefinition>
          <nciodm:PreferredTerm>Extended Release Fiber Dosage Form</nciodm:PreferredTerm>
        </EnumeratedItem>
        <EnumeratedItem CodedValue="FILM" nciodm:ExtCodeID="C42932">
          <nciodm:CDISCDefinition>A thin layer or coating. (NCI)</nciodm:CDISCDefinition>
          <nciodm:PreferredTerm>Film Dosage Form</nciodm:PreferredTerm>
        </EnumeratedItem>
        <EnumeratedItem CodedValue="FILM, EXTENDED RELEASE" nciodm:ExtCodeID="C42920">
          <nciodm:CDISCDefinition>A drug delivery system in the form of a film that releases the drug over an extended period in such a way as to maintain constant drug levels in the blood or target tissue. (NCI)</nciodm:CDISCDefinition>
          <nciodm:PreferredTerm>Extended Release Film Dosage Form</nciodm:PreferredTerm>
        </EnumeratedItem>
        <EnumeratedItem CodedValue="FILM, SOLUBLE" nciodm:ExtCodeID="C42984">
          <nciodm:CDISCDefinition>A thin layer or coating which is susceptible to being dissolved when in contact with a liquid. (NCI)</nciodm:CDISCDefinition>
          <nciodm:PreferredTerm>Soluble Film Dosage Form</nciodm:PreferredTerm>
        </EnumeratedItem>
        <EnumeratedItem CodedValue="FOR SOLUTION" nciodm:ExtCodeID="C60927">
          <nciodm:CDISCDefinition>A product, usually a solid, intended for solution prior to administration. (FDA)</nciodm:CDISCDefinition>
          <nciodm:PreferredTerm>Dosage Form For Solution</nciodm:PreferredTerm>
        </EnumeratedItem>
        <EnumeratedItem CodedValue="FOR SUSPENSION" nciodm:ExtCodeID="C60928">
          <nciodm:CDISCDefinition>A product, usually a solid, intended for suspension prior to administration. (FDA)</nciodm:CDISCDefinition>
          <nciodm:PreferredTerm>Dosage Form For Suspension</nciodm:PreferredTerm>
        </EnumeratedItem>
        <EnumeratedItem CodedValue="FOR SUSPENSION, EXTENDED RELEASE" nciodm:ExtCodeID="C60929">
          <nciodm:CDISCDefinition>A product, usually a solid, intended for suspension prior to administration; once the suspension is administered, the drug will be released at a constant rate over a specified period. (FDA)</nciodm:CDISCDefinition>
          <nciodm:PreferredTerm>Extended Release Dosage Form For Suspension</nciodm:PreferredTerm>
        </EnumeratedItem>
        <EnumeratedItem CodedValue="GAS" nciodm:ExtCodeID="C42933">
          <nciodm:CDISCDefinition>Any elastic aeriform fluid in which the molecules are separated from one another and have free paths. (NCI)</nciodm:CDISCDefinition>
          <nciodm:PreferredTerm>Gas Dosage Form</nciodm:PreferredTerm>
        </EnumeratedItem>
        <EnumeratedItem CodedValue="GEL" nciodm:ExtCodeID="C42934">
          <nciodm:CDISCDefinition>A semisolid (1) dosage form that contains a gelling agent to provide stiffness to a solution or a colloidal dispersion (2). A gel may contain suspended particles. Note 1: A semisolid is not pourable; it does not flow or conform to its container at room temperature. It does not flow at low shear stress and generally exhibits plastic flow behavior. Note 2: A colloidal dispersion is a system in which particles of colloidal dimension (i.e., typically between 1 nm and 1 micrometer) are distributed uniformly throughout a liquid. (NCI)</nciodm:CDISCDefinition>
          <nciodm:PreferredTerm>Gel Dosage Form</nciodm:PreferredTerm>
        </EnumeratedItem>
        <EnumeratedItem CodedValue="GEL, DENTIFRICE" nciodm:ExtCodeID="C42906">
          <nciodm:CDISCDefinition>A combination of a dentifrice (formulation intended to clean and/or polish the teeth, and which may contain certain additional agents), and a gel. It is used with a toothbrush for the purpose of cleaning and polishing the teeth. (NCI)</nciodm:CDISCDefinition>
          <nciodm:PreferredTerm>Dentifrice Gel Dosage Form</nciodm:PreferredTerm>
        </EnumeratedItem>
        <EnumeratedItem CodedValue="GEL, METERED" nciodm:ExtCodeID="C60930">
          <nciodm:CDISCDefinition>A gel preparation, with metered dose valves, which allow for the delivery of a uniform quantity of gel upon each activation. (FDA)</nciodm:CDISCDefinition>
          <nciodm:PreferredTerm>Metered Gel Dosage Form</nciodm:PreferredTerm>
        </EnumeratedItem>
        <EnumeratedItem CodedValue="GENERATOR" nciodm:ExtCodeID="C48193">
          <nciodm:CDISCDefinition>An apparatus for the formation of vapor or gas from a liquid or solid by heat or chemical action. The term GENERATOR also applies to radioactive columns from which radionuclides are provided. (NCI)</nciodm:CDISCDefinition>
          <nciodm:PreferredTerm>Generator Dosage Form</nciodm:PreferredTerm>
        </EnumeratedItem>
        <EnumeratedItem CodedValue="GLOBULE" nciodm:ExtCodeID="C42937">
          <nciodm:CDISCDefinition>Also called pellets or pilules, are made of pure sucrose, lactose, or other polysaccharides. They are formed into small globular masses of various sizes, and are medicated by placing them in a vial and adding the liquid drug attenuation in the proportion not less than one percent (v/w). After shaking, the medicated globules are dried at temperatures not to exceed 40 degrees Centigrade. (NCI)</nciodm:CDISCDefinition>
          <nciodm:PreferredTerm>Globule Dosage Form</nciodm:PreferredTerm>
        </EnumeratedItem>
        <EnumeratedItem CodedValue="GRAFT" nciodm:ExtCodeID="C45416">
          <nciodm:CDISCDefinition>A slip of skin or of other tissue for implantation. (NCI)</nciodm:CDISCDefinition>
          <nciodm:PreferredTerm>Graft Dosage Form</nciodm:PreferredTerm>
        </EnumeratedItem>
        <EnumeratedItem CodedValue="GRANULE" nciodm:ExtCodeID="C42938">
          <nciodm:CDISCDefinition>A small particle or grain. (NCI)</nciodm:CDISCDefinition>
          <nciodm:PreferredTerm>Granule Dosage Form</nciodm:PreferredTerm>
        </EnumeratedItem>
        <EnumeratedItem CodedValue="GRANULE, DELAYED RELEASE" nciodm:ExtCodeID="C42903">
          <nciodm:CDISCDefinition>A small medicinal particle or grain to which an enteric or other coating has been applied, thus delaying release of the drug until its passage into the intestines. (NCI)</nciodm:CDISCDefinition>
          <nciodm:PreferredTerm>Delayed Release Granule Dosage Form</nciodm:PreferredTerm>
        </EnumeratedItem>
        <EnumeratedItem CodedValue="GRANULE, EFFERVESCENT" nciodm:ExtCodeID="C42909">
          <nciodm:CDISCDefinition>A small particle or grain containing a medicinal agent in a dry mixture usually composed of sodium bicarbonate, citric acid, and tartaric acid which, when in contact with water, has the capability to release gas, resulting in effervescence. (NCI)</nciodm:CDISCDefinition>
          <nciodm:PreferredTerm>Effervescent Granule Dosage Form</nciodm:PreferredTerm>
        </EnumeratedItem>
        <EnumeratedItem CodedValue="GRANULE, FOR SOLUTION" nciodm:ExtCodeID="C42939">
          <nciodm:CDISCDefinition>A small medicinal particle or grain made available in its more stable dry form, to be reconstituted with solvent just before dispensing; the granules are so prepared to contain not only the medicinal agent, but the colorants, flavorants, and any other desired pharmaceutic ingredient. (NCI)</nciodm:CDISCDefinition>
          <nciodm:PreferredTerm>Granule For Solution Dosage Form</nciodm:PreferredTerm>
        </EnumeratedItem>
        <EnumeratedItem CodedValue="GRANULE, FOR SUSPENSION" nciodm:ExtCodeID="C42940">
          <nciodm:CDISCDefinition>A small medicinal particle or grain made available in its more stable dry form, to be reconstituted with solvent just before dispensing to form a suspension; the granules are so prepared to contain not only the medicinal agent, but the colorants, flavorants, and any other desired pharmaceutic ingredient. (NCI)</nciodm:CDISCDefinition>
          <nciodm:PreferredTerm>Granule For Suspension Dosage Form</nciodm:PreferredTerm>
        </EnumeratedItem>
        <EnumeratedItem CodedValue="GRANULE, FOR SUSPENSION, EXTENDED RELEASE" nciodm:ExtCodeID="C42921">
          <nciodm:CDISCDefinition>A small medicinal particle or grain made available in its more stable dry form, to be reconstituted with solvent just before dispensing to form a suspension; the extended release system achieves slow release of the drug over an extended period of time and maintains constant drug levels in the blood or target tissue. (NCI)</nciodm:CDISCDefinition>
          <nciodm:PreferredTerm>Extended Release Granule For Suspension Dosage Form</nciodm:PreferredTerm>
        </EnumeratedItem>
        <EnumeratedItem CodedValue="GUM" nciodm:ExtCodeID="C42941">
          <nciodm:CDISCDefinition>A mucilaginous excretion from various plants. (NCI)</nciodm:CDISCDefinition>
          <nciodm:PreferredTerm>Gum Dosage Form</nciodm:PreferredTerm>
        </EnumeratedItem>
        <EnumeratedItem CodedValue="GUM, CHEWING" nciodm:ExtCodeID="C42894">
          <nciodm:CDISCDefinition>A sweetened and flavored insoluble plastic material of various shapes which when chewed, releases a drug substance into the oral cavity. (NCI)</nciodm:CDISCDefinition>
          <nciodm:PreferredTerm>Chewing Gum Dosage Form</nciodm:PreferredTerm>
        </EnumeratedItem>
        <EnumeratedItem CodedValue="GUM, RESIN" nciodm:ExtCodeID="C42978">
          <nciodm:CDISCDefinition>Natural mixture of gum and resin, usually obtained as exudations from plants. (NCI)</nciodm:CDISCDefinition>
          <nciodm:PreferredTerm>Resin Gum Dosage Form</nciodm:PreferredTerm>
        </EnumeratedItem>
        <EnumeratedItem CodedValue="IMPLANT" nciodm:ExtCodeID="C42942">
          <nciodm:CDISCDefinition>A material containing drug intended to be inserted securely and deeply in a living site for growth, slow release, or formation of an organic union. (NCI)</nciodm:CDISCDefinition>
          <nciodm:PreferredTerm>Implant Dosage Form</nciodm:PreferredTerm>
        </EnumeratedItem>
        <EnumeratedItem CodedValue="INHALANT" nciodm:ExtCodeID="C42944">
          <nciodm:CDISCDefinition>A special class of inhalations consisting of a drug or combination of drugs, that by virtue of their high vapor pressure, can be carried by an air current into the nasal passage where they exert their effect; the container from which the inhalant generally is administered is known as an inhaler. (NCI)</nciodm:CDISCDefinition>
          <nciodm:PreferredTerm>Inhalant Dosage Form</nciodm:PreferredTerm>
        </EnumeratedItem>
        <EnumeratedItem CodedValue="INJECTABLE, LIPOSOMAL" nciodm:ExtCodeID="C60931">
          <nciodm:CDISCDefinition>An injection, which either consists of or forms liposomes (a lipid bilayer vesicle usually composed of phospholipids which is used to encapsulate an active drug substance). (FDA)</nciodm:CDISCDefinition>
          <nciodm:PreferredTerm>Liposomal Injection Dosage Form</nciodm:PreferredTerm>
        </EnumeratedItem>
        <EnumeratedItem CodedValue="INJECTION" nciodm:ExtCodeID="C42946">
          <nciodm:CDISCDefinition>A sterile preparation intended for parenteral use; five distinct classes of injections exist as defined by the USP. (NCI)</nciodm:CDISCDefinition>
          <nciodm:PreferredTerm>Injectable Dosage Form</nciodm:PreferredTerm>
        </EnumeratedItem>
        <EnumeratedItem CodedValue="INJECTION, EMULSION" nciodm:ExtCodeID="C42914">
          <nciodm:CDISCDefinition>An emulsion consisting of a sterile, pyrogen-free preparation intended to be administered parenterally.(FDA)</nciodm:CDISCDefinition>
          <nciodm:PreferredTerm>Emulsion for Injection Dosage Form</nciodm:PreferredTerm>
        </EnumeratedItem>
        <EnumeratedItem CodedValue="INJECTION, LIPID COMPLEX" nciodm:ExtCodeID="C42950">
          <nciodm:CDISCDefinition>[definition pending](FDA)</nciodm:CDISCDefinition>
          <nciodm:PreferredTerm>Injectable Lipid Complex Dosage Form</nciodm:PreferredTerm>
        </EnumeratedItem>
        <EnumeratedItem CodedValue="INJECTION, POWDER, FOR SOLUTION" nciodm:ExtCodeID="C42974">
          <nciodm:CDISCDefinition>A sterile preparation intended for reconstitution to form a solution for parenteral use. (NCI)</nciodm:CDISCDefinition>
          <nciodm:PreferredTerm>Powder For Injectable Solution Dosage Form</nciodm:PreferredTerm>
        </EnumeratedItem>
        <EnumeratedItem CodedValue="INJECTION, POWDER, FOR SUSPENSION" nciodm:ExtCodeID="C42976">
          <nciodm:CDISCDefinition>A sterile preparation intended for reconstitution to form a suspension for parenteral use. (NCI)</nciodm:CDISCDefinition>
          <nciodm:PreferredTerm>Powder For Injectable Suspension Dosage Form</nciodm:PreferredTerm>
        </EnumeratedItem>
        <EnumeratedItem CodedValue="INJECTION, POWDER, FOR SUSPENSION, EXTENDED RELEASE" nciodm:ExtCodeID="C42977">
          <nciodm:CDISCDefinition>A dried preparation intended for reconstitution to form a suspension for parenteral use which has been formulated in a manner to allow at least a reduction in dosing frequency as compared to that drug presented as a conventional dosage form (e.g., as a solution).(FDA)</nciodm:CDISCDefinition>
          <nciodm:PreferredTerm>Powder For Injectable Extended Release Suspension Dosage Form</nciodm:PreferredTerm>
        </EnumeratedItem>
        <EnumeratedItem CodedValue="INJECTION, POWDER, LYOPHILIZED, FOR LIPOSOMAL SUSPENSION" nciodm:ExtCodeID="C42959">
          <nciodm:CDISCDefinition>A sterile freeze dried preparation intended for reconstitution for parenteral use which has been formulated in a manner that would allow liposomes (a lipid bilayer vesicle usually composed of phospholipids which is used to encapsulate an active drug substance, either within a lipid bilayer or in an aqueous space) to be formed upon reconstitution. (NCI)</nciodm:CDISCDefinition>
          <nciodm:PreferredTerm>Lyophilized Powder For Injectable Liposomal Suspension Dosage Form</nciodm:PreferredTerm>
        </EnumeratedItem>
        <EnumeratedItem CodedValue="INJECTION, POWDER, LYOPHILIZED, FOR SOLUTION" nciodm:ExtCodeID="C42957">
          <nciodm:CDISCDefinition>A dosage form intended for the solution prepared by lyophilization ('freeze drying'), a process which involves the removal of water from products in the frozen state at extremely low pressures; this is intended for subsequent addition of liquid to create a solution that conforms in all respects to the requirements for Injections. (NCI)</nciodm:CDISCDefinition>
          <nciodm:PreferredTerm>Lyophilized Powder For Injectable Solution Dosage Form</nciodm:PreferredTerm>
        </EnumeratedItem>
        <EnumeratedItem CodedValue="INJECTION, POWDER, LYOPHILIZED, FOR SUSPENSION" nciodm:ExtCodeID="C42958">
          <nciodm:CDISCDefinition>A liquid preparation, intended for parenteral use, that contains solids suspended in a suitable fluid medium and conforms in all respects to the requirements for Sterile Suspensions; the medicinal agents intended for the suspension are prepared by lyophilization ("freeze drying"), a process which involves the removal of water from products in the frozen state at extremely low pressures. (NCI)</nciodm:CDISCDefinition>
          <nciodm:PreferredTerm>Lyophilized Powder For Injectable Suspension Dosage Form</nciodm:PreferredTerm>
        </EnumeratedItem>
        <EnumeratedItem CodedValue="INJECTION, POWDER, LYOPHILIZED, FOR SUSPENSION, EXTENDED RELEASE" nciodm:ExtCodeID="C42956">
          <nciodm:CDISCDefinition>A sterile freeze dried preparation intended for reconstitution for parenteral use which has been formulated in a manner to allow at least a reduction in dosing frequency as compared to that drug presented as a conventional dosage form (e.g., as a solution). (NCI)</nciodm:CDISCDefinition>
          <nciodm:PreferredTerm>Lyophilized Powder For Extended Release Injectable Suspension Dosage Form</nciodm:PreferredTerm>
        </EnumeratedItem>
        <EnumeratedItem CodedValue="INJECTION, SOLUTION" nciodm:ExtCodeID="C42945">
          <nciodm:CDISCDefinition>A liquid preparation containing one or more drug substances dissolved in a suitable solvent or mixture of mutually miscible solvents that is suitable for injection. (NCI)</nciodm:CDISCDefinition>
          <nciodm:PreferredTerm>Injectable Solution Dosage Form</nciodm:PreferredTerm>
        </EnumeratedItem>
        <EnumeratedItem CodedValue="INJECTION, SOLUTION, CONCENTRATE" nciodm:ExtCodeID="C42899">
          <nciodm:CDISCDefinition>A sterile preparation for parenteral use which, upon the addition of suitable solvents, yields a solution conforming in all respects to the requirements for Injections. (NCI)</nciodm:CDISCDefinition>
          <nciodm:PreferredTerm>Concentrate for Injectable Solution Dosage Form</nciodm:PreferredTerm>
        </EnumeratedItem>
        <EnumeratedItem CodedValue="INJECTION, SUSPENSION" nciodm:ExtCodeID="C42995">
          <nciodm:CDISCDefinition>A liquid preparation, suitable for injection, which consists of solid particles dispersed throughout a liquid phase in which the particles are not soluble. It can also consist of an oil phase dispersed throughout an aqueous phase, or vice-versa. (NCI)</nciodm:CDISCDefinition>
          <nciodm:PreferredTerm>Injectable Suspension Dosage Form</nciodm:PreferredTerm>
        </EnumeratedItem>
        <EnumeratedItem CodedValue="INJECTION, SUSPENSION, EXTENDED RELEASE" nciodm:ExtCodeID="C42926">
          <nciodm:CDISCDefinition>A sterile preparation intended for parenteral use which has been formulated in a manner to allow at least a reduction in dosing frequency as compared to that drug presented as a conventional dosage form (e.g., as a solution or a prompt drug-releasing, conventional solid dosage form). (NCI)</nciodm:CDISCDefinition>
          <nciodm:PreferredTerm>Injectable Extended Release Suspension Dosage Form</nciodm:PreferredTerm>
        </EnumeratedItem>
        <EnumeratedItem CodedValue="INJECTION, SUSPENSION, LIPOSOMAL" nciodm:ExtCodeID="C42951">
          <nciodm:CDISCDefinition>A liquid parenteral pharmaceutical dosage form structured as a multilamellar composition of concentric phospholipid spheres that encapsulate the drug (drug delivery systems) separated by layers of water. Drug release is facilitated and controlled by in vivo erosion of the liposomes. To further increase the in vivo circulation time, liposomes in some preparations are covalently derivatized with PEG to produce PEGylated or stealth liposomes. Covalent attachment of drugs to the outer surface of liposomes can potentially serve as a delayed-release product. (NCI)</nciodm:CDISCDefinition>
          <nciodm:PreferredTerm>Injectable Liposomal Suspension Dosage Form</nciodm:PreferredTerm>
        </EnumeratedItem>
        <EnumeratedItem CodedValue="INJECTION, SUSPENSION, SONICATED" nciodm:ExtCodeID="C42988">
          <nciodm:CDISCDefinition>A liquid preparation, suitable for injection, which consists of solid particles dispersed throughout a liquid phase in which the particles are not soluble. In addition, the product is sonicated while a gas is bubbled through the suspension, and this results in the formation of microspheres by the solid particles. (NCI)</nciodm:CDISCDefinition>
          <nciodm:PreferredTerm>Injectable Sonicated Suspension Dosage Form</nciodm:PreferredTerm>
        </EnumeratedItem>
        <EnumeratedItem CodedValue="INSERT" nciodm:ExtCodeID="C60933">
          <nciodm:CDISCDefinition>A specially formulated and shaped non-encapsulated solid preparation intended to be placed into a non-rectal orifice of the body, where drug is released, generally for localized effects. (FDA)</nciodm:CDISCDefinition>
          <nciodm:PreferredTerm>Insert Dosage Form</nciodm:PreferredTerm>
        </EnumeratedItem>
        <EnumeratedItem CodedValue="INSERT, EXTENDED RELEASE" nciodm:ExtCodeID="C42922">
          <nciodm:CDISCDefinition>A specially formulated and shaped solid preparation (e.g., ring, tablet, or stick) intended to be placed in the vagina by special inserters, where the medication is released, generally for localized effects; the extended release preparation is designed to allow a reduction in dosing frequency. (NCI)</nciodm:CDISCDefinition>
          <nciodm:PreferredTerm>Extended Release Insert Dosage Form</nciodm:PreferredTerm>
        </EnumeratedItem>
        <EnumeratedItem CodedValue="INTRAUTERINE DEVICE" nciodm:ExtCodeID="C47915">
          <nciodm:CDISCDefinition>A device inserted and left in the uterus to prevent effective conception. (NCI)</nciodm:CDISCDefinition>
          <nciodm:PreferredTerm>Intrauterine Device Dosage Form</nciodm:PreferredTerm>
        </EnumeratedItem>
        <EnumeratedItem CodedValue="IRRIGANT" nciodm:ExtCodeID="C42947">
          <nciodm:CDISCDefinition>A sterile solution intended to bathe or flush open wounds or body cavities; they're used topically, never parenterally. (NCI)</nciodm:CDISCDefinition>
          <nciodm:PreferredTerm>Irrigant Dosage Form</nciodm:PreferredTerm>
        </EnumeratedItem>
        <EnumeratedItem CodedValue="JELLY" nciodm:ExtCodeID="C42948">
          <nciodm:CDISCDefinition>A class of gels--semisolid systems which consist of suspensions made up of either small inorganic particles or large organic molecules interpenetrated by a liquid--in which the structural coherent matrix contains a high portion of liquid, usually water. (NCI)</nciodm:CDISCDefinition>
          <nciodm:PreferredTerm>Jelly Dosage Form</nciodm:PreferredTerm>
        </EnumeratedItem>
        <EnumeratedItem CodedValue="KIT" nciodm:ExtCodeID="C47916">
          <nciodm:CDISCDefinition>A packaged collection of related material. (NCI)</nciodm:CDISCDefinition>
          <nciodm:PreferredTerm>Kit Dosage Form</nciodm:PreferredTerm>
        </EnumeratedItem>
        <EnumeratedItem CodedValue="LINER, DENTAL" nciodm:ExtCodeID="C45413">
          <nciodm:CDISCDefinition>A material applied to the inside of the dental cavity, for protection or insulation of the surface.(FDA)</nciodm:CDISCDefinition>
          <nciodm:PreferredTerm>Dental Liner Dosage Form</nciodm:PreferredTerm>
        </EnumeratedItem>
        <EnumeratedItem CodedValue="LINIMENT" nciodm:ExtCodeID="C42949">
          <nciodm:CDISCDefinition>A solution or mixture of various substances in oil, alcoholic solutions of soap, or emulsions intended for external application. (NCI)</nciodm:CDISCDefinition>
          <nciodm:PreferredTerm>Liniment Dosage Form</nciodm:PreferredTerm>
        </EnumeratedItem>
        <EnumeratedItem CodedValue="LIPSTICK" nciodm:ExtCodeID="C42952">
          <nciodm:CDISCDefinition>A waxy solid, usually colored cosmetic, in stick form for the lips. (NCI)</nciodm:CDISCDefinition>
          <nciodm:PreferredTerm>Lipstick Dosage Form</nciodm:PreferredTerm>
        </EnumeratedItem>
        <EnumeratedItem CodedValue="LIQUID" nciodm:ExtCodeID="C42953">
          <nciodm:CDISCDefinition>A dosage form consisting of a pure chemical in its liquid state. This dosage form term should not be applied to solutions. Note: A liquid is pourable; it flows and conforms to its container at room temperature. It displays Newtonian or pseudoplastic flow behavior.(FDA)</nciodm:CDISCDefinition>
          <nciodm:PreferredTerm>Liquid Dosage Form</nciodm:PreferredTerm>
        </EnumeratedItem>
        <EnumeratedItem CodedValue="LIQUID, EXTENDED RELEASE" nciodm:ExtCodeID="C60934">
          <nciodm:CDISCDefinition>A liquid that delivers a drug in such a manner to allow a reduction in dosing frequency as compared to that drug (or drugs) presented as a conventional dosage form. (FDA)</nciodm:CDISCDefinition>
          <nciodm:PreferredTerm>Extended Release Liquid Dosage Form</nciodm:PreferredTerm>
        </EnumeratedItem>
        <EnumeratedItem CodedValue="LOTION" nciodm:ExtCodeID="C29167">
          <nciodm:CDISCDefinition>An emulsion, liquid (1) dosage form. This dosage form is generally for external application to the skin (2). Note 1: A liquid is pourable; it flows and conforms to its container at room temperature. It displays Newtonian or pseudoplastic flow behavior. Note 2: Previously the definition of a lotion was: The term lotion has been used to categorize many topical suspensions, solutions, and emulsions intended for application to the skin. The current definition of a lotion is restricted to an emulsion. (FDA)</nciodm:CDISCDefinition>
          <nciodm:PreferredTerm>Lotion Dosage Form</nciodm:PreferredTerm>
        </EnumeratedItem>
        <EnumeratedItem CodedValue="LOTION, AUGMENTED" nciodm:ExtCodeID="C60957">
          <nciodm:CDISCDefinition>A lotion dosage form that enhances drug delivery. Augmentation does not refer to the strength of the drug in the dosage form. NOTE: CDER has decided to refrain from expanding the use of this dosage form due to difficulties in setting specific criteria that must be met to be considered augmented. (FDA)</nciodm:CDISCDefinition>
          <nciodm:PreferredTerm>Augmented Lotion Dosage Form</nciodm:PreferredTerm>
        </EnumeratedItem>
        <EnumeratedItem CodedValue="LOTION/SHAMPOO" nciodm:ExtCodeID="C60958">
          <nciodm:CDISCDefinition>A lotion dosage form which has a soap or detergent that is usually used to clean the hair and scalp; it is often used as a vehicle for dermatologic agents. (FDA)</nciodm:CDISCDefinition>
          <nciodm:PreferredTerm>Lotion Shampoo Dosage Form</nciodm:PreferredTerm>
        </EnumeratedItem>
        <EnumeratedItem CodedValue="LOZENGE" nciodm:ExtCodeID="C42955">
          <nciodm:CDISCDefinition>A solid preparation containing one or more medicaments, usually in a flavored, sweetened base which is intended to dissolve or disintegrate slowly in the mouth. A lollipop is a lozenge on a stick.(FDA)</nciodm:CDISCDefinition>
          <nciodm:PreferredTerm>Lozenge Dosage Form</nciodm:PreferredTerm>
        </EnumeratedItem>
        <EnumeratedItem CodedValue="MOUTHWASH" nciodm:ExtCodeID="C29269">
          <nciodm:CDISCDefinition>An aqueous solution which is most often used for its deodorant, refreshing, or antiseptic effect. (NCI)</nciodm:CDISCDefinition>
          <nciodm:PreferredTerm>Mouthwash Dosage Form</nciodm:PreferredTerm>
        </EnumeratedItem>
        <EnumeratedItem CodedValue="NOT APPLICABLE" nciodm:ExtCodeID="C48624">
          <nciodm:CDISCDefinition>The use of a dosage form term is not relevant or appropriate. (NCI)</nciodm:CDISCDefinition>
          <nciodm:PreferredTerm>Dosage Form Not Applicable</nciodm:PreferredTerm>
        </EnumeratedItem>
        <EnumeratedItem CodedValue="OIL" nciodm:ExtCodeID="C42965">
          <nciodm:CDISCDefinition>An unctuous, combustible substance which is liquid, or easily liquefiable, on warming, and is soluble in ether but insoluble in water. Such substances, depending on their origin, are classified as animal, mineral, or vegetable oils. (NCI)</nciodm:CDISCDefinition>
          <nciodm:PreferredTerm>Oil Dosage Form</nciodm:PreferredTerm>
        </EnumeratedItem>
        <EnumeratedItem CodedValue="OINTMENT" nciodm:ExtCodeID="C42966">
          <nciodm:CDISCSynonym>oint</nciodm:CDISCSynonym>
          <nciodm:CDISCDefinition>A suspension or emulsion, semisolid (1) dosage form, usually containing &lt; 20% water and volatiles (2) and &gt; 50% hydrocarbons, waxes, or polyols as the vehicle. This dosage form is generally for external application to the skin or mucous membranes. Note 1: A semisolid is not pourable; it does not flow or conform to its container at room temperature. It does not flow at low shear stress and generally exhibits plastic flow behavior. Note 2: Percent water and volatiles are measured by a loss on drying test in which the sample is heated at 105 degrees C until constant weight is achieved. (NCI)</nciodm:CDISCDefinition>
          <nciodm:PreferredTerm>Ointment Dosage Form</nciodm:PreferredTerm>
        </EnumeratedItem>
        <EnumeratedItem CodedValue="OINTMENT, AUGMENTED" nciodm:ExtCodeID="C60984">
          <nciodm:CDISCDefinition>An ointment dosage form that enhances drug delivery. Augmentation does not refer to the strength of the drug in the dosage form. NOTE: CDER has decided to refrain from expanding the use of this dosage form due to difficulties in setting specific criteria that must be met to be considered augmented. (FDA)</nciodm:CDISCDefinition>
          <nciodm:PreferredTerm>Augmented Ointment Dosage Form</nciodm:PreferredTerm>
        </EnumeratedItem>
        <EnumeratedItem CodedValue="PACKING" nciodm:ExtCodeID="C47887">
          <nciodm:CDISCDefinition>A material, usually covered by or impregnated with a drug, that is inserted into a body cavity or between the tooth enamel and the gingival margin.(FDA)</nciodm:CDISCDefinition>
          <nciodm:PreferredTerm>Packing Dosage Form</nciodm:PreferredTerm>
        </EnumeratedItem>
        <EnumeratedItem CodedValue="PASTE" nciodm:ExtCodeID="C42967">
          <nciodm:CDISCDefinition>A semisolid dosage form, containing a large proportion (20 - 50%) of solids finely dispersed in a fatty vehicle. This dosage form is generally for external application to the skin or mucous membranes. Note: A semisolid is not pourable; it does not flow or conform to its container at room temperature. It does not flow at low shear stress and generally exhibits plastic flow behavior. (NCI)</nciodm:CDISCDefinition>
          <nciodm:PreferredTerm>Paste Dosage Form</nciodm:PreferredTerm>
        </EnumeratedItem>
        <EnumeratedItem CodedValue="PASTE, DENTIFRICE" nciodm:ExtCodeID="C42907">
          <nciodm:CDISCDefinition>A paste formulation intended to clean and/or polish the teeth, and which may contain certain additional agents. (NCI)</nciodm:CDISCDefinition>
          <nciodm:PreferredTerm>Dentifrice Paste Dosage Form</nciodm:PreferredTerm>
        </EnumeratedItem>
        <EnumeratedItem CodedValue="PASTILLE" nciodm:ExtCodeID="C60985">
          <nciodm:CDISCDefinition>An aromatic preparation, often with a pleasing flavor, usually intended to dissolve in the mouth. (FDA)</nciodm:CDISCDefinition>
          <nciodm:PreferredTerm>Pastille Dosage Form</nciodm:PreferredTerm>
        </EnumeratedItem>
        <EnumeratedItem CodedValue="PATCH" nciodm:ExtCodeID="C42968">
          <nciodm:CDISCDefinition>A drug delivery system that often contains an adhesive backing that is usually applied to an external site on the body. Its ingredients either passively diffuse from, or are actively transported from, some portion of the patch. Depending upon the patch, the ingredients are either delivered to the outer surface of the body or into the body. A patch is sometimes synonymous with the terms Extended Release Film and System. (NCI)</nciodm:CDISCDefinition>
          <nciodm:PreferredTerm>Patch Dosage Form</nciodm:PreferredTerm>
        </EnumeratedItem>
        <EnumeratedItem CodedValue="PATCH, EXTENDED RELEASE" nciodm:ExtCodeID="C42923">
          <nciodm:CDISCDefinition>A drug delivery system in the form of a patch that releases the drug in such a manner that a reduction in dosing frequency compared to that drug presented as a conventional dosage form (e.g., a solution or a prompt drug-releasing, conventional solid dosage form). (NCI)</nciodm:CDISCDefinition>
          <nciodm:PreferredTerm>Extended Release Patch Dosage Form</nciodm:PreferredTerm>
        </EnumeratedItem>
        <EnumeratedItem CodedValue="PATCH, EXTENDED RELEASE, ELECTRICALLY CONTROLLED" nciodm:ExtCodeID="C42911">
          <nciodm:CDISCDefinition>A drug delivery system in the form of a patch which is controlled by an electric current that releases the drug in such a manner that a reduction in dosing frequency compared to that drug presented as a conventional dosage form (e.g., a solution or a prompt drug-releasing, conventional solid dosage form). (NCI)</nciodm:CDISCDefinition>
          <nciodm:PreferredTerm>Electrically Controlled Extended Release Patch Dosage Form</nciodm:PreferredTerm>
        </EnumeratedItem>
        <EnumeratedItem CodedValue="PELLET" nciodm:ExtCodeID="C42969">
          <nciodm:CDISCDefinition>A small sterile solid mass consisting of a highly purified drug (with or without excipients) made by the formation of granules, or by compression and molding. (NCI)</nciodm:CDISCDefinition>
          <nciodm:PreferredTerm>Pellet Dosage Form</nciodm:PreferredTerm>
        </EnumeratedItem>
        <EnumeratedItem CodedValue="PELLET, IMPLANTABLE" nciodm:ExtCodeID="C42943">
          <nciodm:CDISCDefinition>A small sterile solid mass consisting of a highly purified drug (with or without excipients) made by the formation of granules, or by compression and molding; they are intended for implantation in the body (usually subcutaneously) for the purpose of providing continuous release of the drug over long periods of time. (NCI)</nciodm:CDISCDefinition>
          <nciodm:PreferredTerm>Implantable Pellet Dosage Form</nciodm:PreferredTerm>
        </EnumeratedItem>
        <EnumeratedItem CodedValue="PELLETS, COATED, EXTENDED RELEASE" nciodm:ExtCodeID="C42918">
          <nciodm:CDISCDefinition>A solid dosage form in which the drug itself is in the form of granules to which varying amounts of coating have been applied, and which releases a drug (or drugs) in such a manner to allow a reduction in dosing frequency as compared to that drug (or drugs) presented as a conventional dosage form. (NCI)</nciodm:CDISCDefinition>
          <nciodm:PreferredTerm>Extended Release Coated Pellets Dosage Form</nciodm:PreferredTerm>
        </EnumeratedItem>
        <EnumeratedItem CodedValue="PILL" nciodm:ExtCodeID="C25394">
          <nciodm:CDISCDefinition>A dose of medicine in the form of a small pellet. (NCI)</nciodm:CDISCDefinition>
          <nciodm:PreferredTerm>Pill Dosage Form</nciodm:PreferredTerm>
        </EnumeratedItem>
        <EnumeratedItem CodedValue="PLASTER" nciodm:ExtCodeID="C42970">
          <nciodm:CDISCDefinition>Substance intended for external application made of such materials and of such consistency as to adhere to the skin and attach to a dressing; plasters are intended to afford protection and support and/or to furnish an occlusion and macerating action and to bring medication into close contact with the skin. (NCI)</nciodm:CDISCDefinition>
          <nciodm:PreferredTerm>Plaster Dosage Form</nciodm:PreferredTerm>
        </EnumeratedItem>
        <EnumeratedItem CodedValue="POULTICE" nciodm:ExtCodeID="C47913">
          <nciodm:CDISCDefinition>A soft, moist mass of meal, herbs, seed, etc., usually applied hot in cloth that consists of gruel-like consistency. (NCI)</nciodm:CDISCDefinition>
          <nciodm:PreferredTerm>Poultice Dosage Form</nciodm:PreferredTerm>
        </EnumeratedItem>
        <EnumeratedItem CodedValue="POWDER" nciodm:ExtCodeID="C42972">
          <nciodm:CDISCDefinition>An intimate mixture of dry, finely divided drugs and/or chemicals that may be intended for internal or external use. (NCI)</nciodm:CDISCDefinition>
          <nciodm:PreferredTerm>Powder Dosage Form</nciodm:PreferredTerm>
        </EnumeratedItem>
        <EnumeratedItem CodedValue="POWDER, DENTIFRICE" nciodm:ExtCodeID="C42908">
          <nciodm:CDISCDefinition>A powder formulation intended to clean and/or polish the teeth, and which may contain certain additional agents. (NCI)</nciodm:CDISCDefinition>
          <nciodm:PreferredTerm>Dentifrice Powder Dosage Form</nciodm:PreferredTerm>
        </EnumeratedItem>
        <EnumeratedItem CodedValue="POWDER, FOR SOLUTION" nciodm:ExtCodeID="C42973">
          <nciodm:CDISCDefinition>An intimate mixture of dry, finely divided drugs and/or chemicals, which, upon the addition of suitable vehicles, yields a solution. (NCI)</nciodm:CDISCDefinition>
          <nciodm:PreferredTerm>Powder for Solution Dosage Form</nciodm:PreferredTerm>
        </EnumeratedItem>
        <EnumeratedItem CodedValue="POWDER, FOR SUSPENSION" nciodm:ExtCodeID="C42975">
          <nciodm:CDISCDefinition>An intimate mixture of dry, finely divided drugs and/or chemicals, which, upon the addition of suitable vehicles, yields a suspension (a liquid preparation containing the solid particles dispersed in the liquid vehicle). (NCI)</nciodm:CDISCDefinition>
          <nciodm:PreferredTerm>Powder for Suspension Dosage Form</nciodm:PreferredTerm>
        </EnumeratedItem>
        <EnumeratedItem CodedValue="POWDER, METERED" nciodm:ExtCodeID="C42961">
          <nciodm:CDISCDefinition>A powder dosage form that is situated inside a container that has a mechanism to deliver a specified quantity. (NCI)</nciodm:CDISCDefinition>
          <nciodm:PreferredTerm>Metered Powder Dosage Form</nciodm:PreferredTerm>
        </EnumeratedItem>
        <EnumeratedItem CodedValue="RING" nciodm:ExtCodeID="C60988">
          <nciodm:CDISCDefinition>A small circular object with a vacant circular center that is usually intended to be placed in the body by special inserters, where the medication is released, generally for localized effects. (FDA)</nciodm:CDISCDefinition>
          <nciodm:PreferredTerm>Ring Dosage Form</nciodm:PreferredTerm>
        </EnumeratedItem>
        <EnumeratedItem CodedValue="RINSE" nciodm:ExtCodeID="C42979">
          <nciodm:CDISCDefinition>A liquid used to cleanse by flushing. (NCI)</nciodm:CDISCDefinition>
          <nciodm:PreferredTerm>Rinse Dosage Form</nciodm:PreferredTerm>
        </EnumeratedItem>
        <EnumeratedItem CodedValue="SALVE" nciodm:ExtCodeID="C42980">
          <nciodm:CDISCDefinition>A thick ointment or cerate (a fat or wax based preparation with a consistency between an ointment and a plaster). (NCI)</nciodm:CDISCDefinition>
          <nciodm:PreferredTerm>Salve Dosage Form</nciodm:PreferredTerm>
        </EnumeratedItem>
        <EnumeratedItem CodedValue="SHAMPOO" nciodm:ExtCodeID="C42981">
          <nciodm:CDISCDefinition>A liquid soap or detergent used to clean the hair and scalp and is often used as a vehicle for dermatologic agents. (NCI)</nciodm:CDISCDefinition>
          <nciodm:PreferredTerm>Shampoo Dosage Form</nciodm:PreferredTerm>
        </EnumeratedItem>
        <EnumeratedItem CodedValue="SHAMPOO, SUSPENSION" nciodm:ExtCodeID="C42982">
          <nciodm:CDISCDefinition>A liquid soap or detergent containing one or more solid, insoluble substances dispersed in a liquid vehicle that is used to clean the hair and scalp and is often used as a vehicle for dermatologic agents. (NCI)</nciodm:CDISCDefinition>
          <nciodm:PreferredTerm>Shampoo Suspension Dosage Form</nciodm:PreferredTerm>
        </EnumeratedItem>
        <EnumeratedItem CodedValue="SOAP" nciodm:ExtCodeID="C42983">
          <nciodm:CDISCDefinition>Any compound of one or more fatty acids, or their equivalents, with an alkali; soap is detergent and is much employed in liniments, enemas, and in making pills. It is also a mild aperient, antacid and antiseptic. (NCI)</nciodm:CDISCDefinition>
          <nciodm:PreferredTerm>Soap Dosage Form</nciodm:PreferredTerm>
        </EnumeratedItem>
        <EnumeratedItem CodedValue="SOLUTION" nciodm:ExtCodeID="C42986">
          <nciodm:CDISCDefinition>A clear, homogeneous liquid dosage form that contains one or more chemical substances dissolved in a solvent or mixture of mutually miscible solvents. Note: A liquid is pourable; it flows and conforms to its container at room temperature. It displays Newtonian or pseudoplastic flow behavior. (NCI)</nciodm:CDISCDefinition>
          <nciodm:PreferredTerm>Solution Dosage Form</nciodm:PreferredTerm>
        </EnumeratedItem>
        <EnumeratedItem CodedValue="SOLUTION, CONCENTRATE" nciodm:ExtCodeID="C42898">
          <nciodm:CDISCDefinition>A liquid preparation (i.e., a substance that flows readily in its natural state) that contains a drug dissolved in a suitable solvent or mixture of mutually miscible solvents; the drug has been strengthened by the evaporation of its non-active parts. (NCI)</nciodm:CDISCDefinition>
          <nciodm:PreferredTerm>Concentrate for Solution Dosage Form</nciodm:PreferredTerm>
        </EnumeratedItem>
        <EnumeratedItem CodedValue="SOLUTION, FOR SLUSH" nciodm:ExtCodeID="C42987">
          <nciodm:CDISCDefinition>A solution for the preparation of an iced saline slush, which is administered by irrigation and used to induce regional hypothermia (in conditions such as certain open heart and kidney surgical procedures) by its direct application. (NCI)</nciodm:CDISCDefinition>
          <nciodm:PreferredTerm>Solution For Slush Dosage Form</nciodm:PreferredTerm>
        </EnumeratedItem>
        <EnumeratedItem CodedValue="SOLUTION, GEL FORMING / DROPS" nciodm:ExtCodeID="C60994">
          <nciodm:CDISCDefinition>A solution, which after usually being administered in a drop-wise fashion, forms a gel. (FDA)</nciodm:CDISCDefinition>
          <nciodm:PreferredTerm>Gel Forming Drops Solution Dosage Form</nciodm:PreferredTerm>
        </EnumeratedItem>
        <EnumeratedItem CodedValue="SOLUTION, GEL FORMING, EXTENDED RELEASE" nciodm:ExtCodeID="C42935">
          <nciodm:CDISCDefinition>A solution that forms a gel when it comes in contact with ocular fluid, and which allows at least a reduction in dosing frequency. (FDA)</nciodm:CDISCDefinition>
          <nciodm:PreferredTerm>Extended Release Gel Forming Solution Dosage Form</nciodm:PreferredTerm>
        </EnumeratedItem>
        <EnumeratedItem CodedValue="SOLUTION/ DROPS" nciodm:ExtCodeID="C60992">
          <nciodm:CDISCDefinition>A solution which is usually administered in a drop-wise fashion. (FDA)</nciodm:CDISCDefinition>
          <nciodm:PreferredTerm>Drops Solution Dosage Form</nciodm:PreferredTerm>
        </EnumeratedItem>
        <EnumeratedItem CodedValue="SPONGE" nciodm:ExtCodeID="C47912">
          <nciodm:CDISCDefinition>A porous, interlacing, absorbent material that contains a drug. It is typically used for applying or introducing medication, or for cleansing. A sponge usually retains its shape.(FDA)</nciodm:CDISCDefinition>
          <nciodm:PreferredTerm>Sponge Dosage Form</nciodm:PreferredTerm>
        </EnumeratedItem>
        <EnumeratedItem CodedValue="SPRAY" nciodm:ExtCodeID="C42989">
          <nciodm:CDISCDefinition>A liquid minutely divided as by a jet of air or steam. (NCI)</nciodm:CDISCDefinition>
          <nciodm:PreferredTerm>Spray Dosage Form</nciodm:PreferredTerm>
        </EnumeratedItem>
        <EnumeratedItem CodedValue="SPRAY, METERED" nciodm:ExtCodeID="C42962">
          <nciodm:CDISCDefinition>A non-pressurized dosage form consisting of valves which allow the dispensing of a specified quantity of spray upon each activation. (NCI)</nciodm:CDISCDefinition>
          <nciodm:PreferredTerm>Metered Spray Dosage Form</nciodm:PreferredTerm>
        </EnumeratedItem>
        <EnumeratedItem CodedValue="SPRAY, SUSPENSION" nciodm:ExtCodeID="C42990">
          <nciodm:CDISCDefinition>A liquid preparation containing solid particles dispersed in a liquid vehicle and in the form of coarse droplets or as finely divided solids to be applied locally, most usually to the nasal-pharyngeal tract, or topically to the skin. (NCI)</nciodm:CDISCDefinition>
          <nciodm:PreferredTerm>Spray Suspension Dosage Form</nciodm:PreferredTerm>
        </EnumeratedItem>
        <EnumeratedItem CodedValue="STICK" nciodm:ExtCodeID="C42991">
          <nciodm:CDISCDefinition>A dosage form prepared in a relatively long and slender often cylindrical form. (NCI)</nciodm:CDISCDefinition>
          <nciodm:PreferredTerm>Stick Dosage Form</nciodm:PreferredTerm>
        </EnumeratedItem>
        <EnumeratedItem CodedValue="STRIP" nciodm:ExtCodeID="C47914">
          <nciodm:CDISCDefinition>A long narrow piece of material.</nciodm:CDISCDefinition>
          <nciodm:PreferredTerm>Strip Dosage Form</nciodm:PreferredTerm>
        </EnumeratedItem>
        <EnumeratedItem CodedValue="SUPPOSITORY" nciodm:ExtCodeID="C42993">
          <nciodm:CDISCSynonym>supp</nciodm:CDISCSynonym>
          <nciodm:CDISCDefinition>A solid body of various weights and shapes, adapted for introduction into the rectal, vaginal, or urethral orifice of the human body; they usually melt, soften, or dissolve at body temperature. (NCI)</nciodm:CDISCDefinition>
          <nciodm:PreferredTerm>Suppository Dosage Form</nciodm:PreferredTerm>
        </EnumeratedItem>
        <EnumeratedItem CodedValue="SUPPOSITORY, EXTENDED RELEASE" nciodm:ExtCodeID="C42924">
          <nciodm:CDISCDefinition>A drug delivery system in the form of a suppository that allows at least a reduction in dosing frequency. (NCI)</nciodm:CDISCDefinition>
          <nciodm:PreferredTerm>Extended Release Suppository Dosage Form</nciodm:PreferredTerm>
        </EnumeratedItem>
        <EnumeratedItem CodedValue="SUSPENSION" nciodm:ExtCodeID="C42994">
          <nciodm:CDISCSynonym>susp</nciodm:CDISCSynonym>
          <nciodm:CDISCDefinition>A liquid dosage form that contains solid particles dispersed in a liquid vehicle. Note: A liquid is pourable; it flows and conforms to its container at room temperature. It displays Newtonian or pseudoplastic flow behavior.(FDA)</nciodm:CDISCDefinition>
          <nciodm:PreferredTerm>Suspension Dosage Form</nciodm:PreferredTerm>
        </EnumeratedItem>
        <EnumeratedItem CodedValue="SUSPENSION, EXTENDED RELEASE" nciodm:ExtCodeID="C42925">
          <nciodm:CDISCDefinition>A liquid preparation consisting of solid particles dispersed throughout a liquid phase in which the particles are not soluble; the suspension has been formulated in a manner to allow at least a reduction in dosing frequency as compared to that drug presented as a conventional dosage form (e.g., as a solution or a prompt drug-releasing, conventional solid dosage form). (NCI)</nciodm:CDISCDefinition>
          <nciodm:PreferredTerm>Extended Release Suspension Dosage Form</nciodm:PreferredTerm>
        </EnumeratedItem>
        <EnumeratedItem CodedValue="SUSPENSION/DROPS" nciodm:ExtCodeID="C60995">
          <nciodm:CDISCDefinition>A suspension which is usually administered in a dropwise fashion. (FDA)</nciodm:CDISCDefinition>
          <nciodm:PreferredTerm>Drops Suspension Dosage Form</nciodm:PreferredTerm>
        </EnumeratedItem>
        <EnumeratedItem CodedValue="SUTURE" nciodm:ExtCodeID="C47889">
          <nciodm:CDISCDefinition>A strand or fiber used to hold wound edges in apposition during healing. (NCI)</nciodm:CDISCDefinition>
          <nciodm:PreferredTerm>Suture Dosage Form</nciodm:PreferredTerm>
        </EnumeratedItem>
        <EnumeratedItem CodedValue="SWAB" nciodm:ExtCodeID="C47898">
          <nciodm:CDISCDefinition>A small piece of relatively flat absorbent material that contains a drug. A swab may also be attached to one end of a small stick. A swab is typically used for applying medication or for cleansing. (NCI)</nciodm:CDISCDefinition>
          <nciodm:PreferredTerm>Swab Dosage Form</nciodm:PreferredTerm>
        </EnumeratedItem>
        <EnumeratedItem CodedValue="SYRUP" nciodm:ExtCodeID="C42996">
          <nciodm:CDISCDefinition>An oral solution containing high concentrations of sucrose or other sugars; the term has also been used to include any other liquid dosage form prepared in a sweet and viscid vehicle, including oral suspensions. (NCI)</nciodm:CDISCDefinition>
          <nciodm:PreferredTerm>Syrup Dosage Form</nciodm:PreferredTerm>
        </EnumeratedItem>
        <EnumeratedItem CodedValue="TABLET" nciodm:ExtCodeID="C42998">
          <nciodm:CDISCSynonym>tab</nciodm:CDISCSynonym>
          <nciodm:CDISCDefinition>A solid dosage form containing medicinal substances with or without suitable diluents. (NCI)</nciodm:CDISCDefinition>
          <nciodm:PreferredTerm>Tablet Dosage Form</nciodm:PreferredTerm>
        </EnumeratedItem>
        <EnumeratedItem CodedValue="TABLET, CHEWABLE" nciodm:ExtCodeID="C42893">
          <nciodm:CDISCDefinition>A solid dosage form containing medicinal substances with or without suitable diluents that is intended to be chewed, producing a pleasant tasting residue in the oral cavity that is easily swallowed and does not leave a bitter or unpleasant after-taste. (NCI)</nciodm:CDISCDefinition>
          <nciodm:PreferredTerm>Chewable Tablet Dosage Form</nciodm:PreferredTerm>
        </EnumeratedItem>
        <EnumeratedItem CodedValue="TABLET, COATED" nciodm:ExtCodeID="C42897">
          <nciodm:CDISCDefinition>A solid dosage form that contains medicinal substances with or without suitable diluents and is covered with a designated coating. (NCI)</nciodm:CDISCDefinition>
          <nciodm:PreferredTerm>Coated Tablet Dosage Form</nciodm:PreferredTerm>
        </EnumeratedItem>
        <EnumeratedItem CodedValue="TABLET, COATED PARTICLES" nciodm:ExtCodeID="C60997">
          <nciodm:CDISCDefinition>A solid dosage form containing a conglomerate of medicinal particles that have each been covered with a coating. (FDA)</nciodm:CDISCDefinition>
          <nciodm:PreferredTerm>Tablet Coated Particles Dosage Form</nciodm:PreferredTerm>
        </EnumeratedItem>
